id,trial,word_class,target_word,chosen_word,chosen_category,chosen_position,correct,responsetime_ms,browser,OS,date,sex,age
1fabzt9G,1,noun,auge,auge,target,upper-left,TRUE,8435,Chrome,Windows,2026-02-20,m,6.1300479123887746
1fabzt9G,2,verb,schweben,schweben,target,lower-left,TRUE,13161,Chrome,Windows,2026-02-20,m,6.1300479123887746
1fabzt9G,3,noun,moehre,moehre,target,lower-right,TRUE,13599,Chrome,Windows,2026-02-20,m,6.1300479123887746
1fabzt9G,4,noun,ameise,ameise,target,upper-right,TRUE,3996,Chrome,Windows,2026-02-20,m,6.1300479123887746
1fabzt9G,5,verb,jonglieren,jonglieren,target,upper-right,TRUE,13573,Chrome,Windows,2026-02-20,m,6.1300479123887746
1fabzt9G,6,noun,elch,elch,target,upper-left,TRUE,4588,Chrome,Windows,2026-02-20,m,6.1300479123887746
1fabzt9G,7,noun,chor,chor,target,upper-right,TRUE,7937,Chrome,Windows,2026-02-20,m,6.1300479123887746
1fabzt9G,8,verb,torkeln,backen,dist3,lower-right,FALSE,11876,Chrome,Windows,2026-02-20,m,6.1300479123887746
1fabzt9G,9,verb,studieren,unterrichten,dist1,upper-right,FALSE,14987,Chrome,Windows,2026-02-20,m,6.1300479123887746
1fabzt9G,10,verb,operieren,operieren,target,lower-left,TRUE,4030,Chrome,Windows,2026-02-20,m,6.1300479123887746
1fabzt9G,11,noun,ventilator,ventilator,target,lower-left,TRUE,5094,Chrome,Windows,2026-02-20,m,6.1300479123887746
1fabzt9G,12,verb,waehlen,ueberlegen,dist1,upper-right,FALSE,5977,Chrome,Windows,2026-02-20,m,6.1300479123887746
1fabzt9G,13,noun,rucola,rosenkohl,dist1,lower-left,FALSE,8923,Chrome,Windows,2026-02-20,m,6.1300479123887746
1fabzt9G,14,verb,scheren,scheren,target,upper-right,TRUE,19866,Chrome,Windows,2026-02-20,m,6.1300479123887746
1fabzt9G,15,noun,giraffe,giraffe,target,upper-left,TRUE,3924,Chrome,Windows,2026-02-20,m,6.1300479123887746
1fabzt9G,16,noun,palme,palme,target,lower-left,TRUE,6037,Chrome,Windows,2026-02-20,m,6.1300479123887746
1fabzt9G,17,verb,tadeln,fluestern,dist3,upper-left,FALSE,11248,Chrome,Windows,2026-02-20,m,6.1300479123887746
1fabzt9G,18,noun,ananas,ananas,target,lower-right,TRUE,3672,Chrome,Windows,2026-02-20,m,6.1300479123887746
1fabzt9G,19,verb,empfangen,verschicken,dist1,lower-left,FALSE,6310,Chrome,Windows,2026-02-20,m,6.1300479123887746
1fabzt9G,20,verb,verloben,heiraten,dist1,lower-right,FALSE,12594,Chrome,Windows,2026-02-20,m,6.1300479123887746
1fabzt9G,21,noun,ozean,ozean,target,upper-left,TRUE,5306,Chrome,Windows,2026-02-20,m,6.1300479123887746
1fabzt9G,22,verb,faulenzen,faulenzen,target,upper-left,TRUE,6273,Chrome,Windows,2026-02-20,m,6.1300479123887746
1fabzt9G,23,noun,gazelle,gazelle,target,lower-right,TRUE,9908,Chrome,Windows,2026-02-20,m,6.1300479123887746
1fabzt9G,24,verb,liefern,liefern,target,lower-left,TRUE,4619,Chrome,Windows,2026-02-20,m,6.1300479123887746
1fabzt9G,25,noun,pfifferling,pfifferling,target,upper-left,TRUE,10250,Chrome,Windows,2026-02-20,m,6.1300479123887746
1fabzt9G,26,verb,dekorieren,dekorieren,target,upper-right,TRUE,5642,Chrome,Windows,2026-02-20,m,6.1300479123887746
1fabzt9G,27,verb,bekennen,bekennen,target,upper-left,TRUE,10978,Chrome,Windows,2026-02-20,m,6.1300479123887746
1fabzt9G,28,noun,ruine,ruine,target,lower-right,TRUE,35792,Chrome,Windows,2026-02-20,m,6.1300479123887746
1fabzt9G,29,noun,labyrinth,labyrinth,target,lower-left,TRUE,6333,Chrome,Windows,2026-02-20,m,6.1300479123887746
1fabzt9G,30,noun,orchidee,orchidee,target,lower-left,TRUE,9648,Chrome,Windows,2026-02-20,m,6.1300479123887746
1fabzt9G,31,verb,schwanken,schwanken,target,upper-right,TRUE,5087,Chrome,Windows,2026-02-20,m,6.1300479123887746
1fabzt9G,32,noun,zucchini,zucchini,target,upper-right,TRUE,5573,Chrome,Windows,2026-02-20,m,6.1300479123887746
1fabzt9G,33,verb,tuermen,tuermen,target,upper-left,TRUE,9474,Chrome,Windows,2026-02-20,m,6.1300479123887746
1fabzt9G,34,verb,befreien,befreien,target,lower-right,TRUE,5908,Chrome,Windows,2026-02-20,m,6.1300479123887746
1fabzt9G,35,noun,kajak,kajak,target,upper-left,TRUE,6207,Chrome,Windows,2026-02-20,m,6.1300479123887746
1fabzt9G,36,verb,abseilen,abseilen,target,upper-left,TRUE,5967,Chrome,Windows,2026-02-20,m,6.1300479123887746
1fabzt9G,37,verb,tuscheln,tuscheln,target,lower-right,TRUE,9781,Chrome,Windows,2026-02-20,m,6.1300479123887746
1fabzt9G,38,noun,hummer,krebs,dist1,lower-right,FALSE,13650,Chrome,Windows,2026-02-20,m,6.1300479123887746
1fabzt9G,39,noun,nelke,veilchen,dist1,lower-right,FALSE,29627,Chrome,Windows,2026-02-20,m,6.1300479123887746
1fabzt9G,40,verb,betrachten,bewachen,dist2,upper-right,FALSE,9374,Chrome,Windows,2026-02-20,m,6.1300479123887746
1fabzt9G,41,noun,flunder,flunder,target,lower-right,TRUE,16201,Chrome,Windows,2026-02-20,m,6.1300479123887746
1fabzt9G,42,noun,cello,harfe,dist1,lower-right,FALSE,7212,Chrome,Windows,2026-02-20,m,6.1300479123887746
1scatykX,1,noun,auge,auge,target,upper-left,TRUE,10075,Firefox,Windows,2026-02-20,w,5.409993155373032
1scatykX,2,verb,schweben,schweben,target,lower-left,TRUE,3973,Firefox,Windows,2026-02-20,w,5.409993155373032
1scatykX,3,noun,moehre,moehre,target,lower-right,TRUE,2498,Firefox,Windows,2026-02-20,w,5.409993155373032
1scatykX,4,noun,ameise,ameise,target,upper-right,TRUE,6149,Firefox,Windows,2026-02-20,w,5.409993155373032
1scatykX,5,verb,jonglieren,anfassen,dist3,lower-left,FALSE,62325,Firefox,Windows,2026-02-20,w,5.409993155373032
1scatykX,6,noun,elch,elch,target,upper-left,TRUE,4221,Firefox,Windows,2026-02-20,w,5.409993155373032
1scatykX,7,noun,chor,orchester,dist1,lower-right,FALSE,6837,Firefox,Windows,2026-02-20,w,5.409993155373032
1scatykX,8,verb,torkeln,torkeln,target,upper-left,TRUE,7187,Firefox,Windows,2026-02-20,w,5.409993155373032
1scatykX,9,verb,studieren,marschieren,dist2,upper-left,FALSE,7514,Firefox,Windows,2026-02-20,w,5.409993155373032
1scatykX,10,verb,operieren,operieren,target,lower-left,TRUE,19836,Firefox,Windows,2026-02-20,w,5.409993155373032
1scatykX,11,noun,ventilator,ventilator,target,lower-left,TRUE,5170,Firefox,Windows,2026-02-20,w,5.409993155373032
1scatykX,12,verb,waehlen,waehlen,target,lower-right,TRUE,9714,Firefox,Windows,2026-02-20,w,5.409993155373032
1scatykX,13,noun,rucola,rosenkohl,dist1,lower-left,FALSE,5113,Firefox,Windows,2026-02-20,w,5.409993155373032
1scatykX,14,verb,scheren,scheren,target,upper-right,TRUE,4351,Firefox,Windows,2026-02-20,w,5.409993155373032
1scatykX,15,noun,giraffe,giraffe,target,upper-left,TRUE,4201,Firefox,Windows,2026-02-20,w,5.409993155373032
1scatykX,16,noun,palme,palme,target,lower-left,TRUE,3721,Firefox,Windows,2026-02-20,w,5.409993155373032
1scatykX,17,verb,tadeln,tadeln,target,upper-right,TRUE,14593,Firefox,Windows,2026-02-20,w,5.409993155373032
1scatykX,18,noun,ananas,ananas,target,lower-right,TRUE,2809,Firefox,Windows,2026-02-20,w,5.409993155373032
1scatykX,19,verb,empfangen,einfangen,dist2,upper-left,FALSE,4686,Firefox,Windows,2026-02-20,w,5.409993155373032
1scatykX,20,verb,verloben,vergeben,dist2,lower-left,FALSE,13450,Firefox,Windows,2026-02-20,w,5.409993155373032
1scatykX,21,noun,ozean,ozean,target,upper-left,TRUE,4026,Firefox,Windows,2026-02-20,w,5.409993155373032
1scatykX,22,verb,faulenzen,faulenzen,target,upper-left,TRUE,12580,Firefox,Windows,2026-02-20,w,5.409993155373032
1scatykX,23,noun,gazelle,libelle,dist2,upper-left,FALSE,17514,Firefox,Windows,2026-02-20,w,5.409993155373032
1scatykX,24,verb,liefern,liefern,target,lower-left,TRUE,7382,Firefox,Windows,2026-02-20,w,5.409993155373032
1scatykX,25,noun,pfifferling,pfifferling,target,upper-left,TRUE,6047,Firefox,Windows,2026-02-20,w,5.409993155373032
1scatykX,26,verb,dekorieren,werkeln,dist1,lower-right,FALSE,7735,Firefox,Windows,2026-02-20,w,5.409993155373032
1scatykX,27,verb,bekennen,verstecken,dist1,lower-right,FALSE,39774,Firefox,Windows,2026-02-20,w,5.409993155373032
1scatykX,28,noun,ruine,ruine,target,lower-right,TRUE,5241,Firefox,Windows,2026-02-20,w,5.409993155373032
1scatykX,29,noun,labyrinth,labyrinth,target,lower-left,TRUE,4152,Firefox,Windows,2026-02-20,w,5.409993155373032
1scatykX,30,noun,orchidee,orchidee,target,lower-left,TRUE,7538,Firefox,Windows,2026-02-20,w,5.409993155373032
1scatykX,31,verb,schwanken,schwanken,target,upper-right,TRUE,26283,Firefox,Windows,2026-02-20,w,5.409993155373032
1scatykX,32,noun,zucchini,zucchini,target,upper-right,TRUE,6245,Firefox,Windows,2026-02-20,w,5.409993155373032
1scatykX,33,verb,tuermen,tuermen,target,upper-left,TRUE,12057,Firefox,Windows,2026-02-20,w,5.409993155373032
1scatykX,34,verb,befreien,befreien,target,lower-right,TRUE,5044,Firefox,Windows,2026-02-20,w,5.409993155373032
1scatykX,35,noun,kajak,kajak,target,upper-left,TRUE,5224,Firefox,Windows,2026-02-20,w,5.409993155373032
1scatykX,36,verb,abseilen,abseilen,target,upper-left,TRUE,4680,Firefox,Windows,2026-02-20,w,5.409993155373032
1scatykX,37,verb,tuscheln,tuscheln,target,lower-right,TRUE,11921,Firefox,Windows,2026-02-20,w,5.409993155373032
1scatykX,38,noun,hummer,hummer,target,upper-right,TRUE,5866,Firefox,Windows,2026-02-20,w,5.409993155373032
1scatykX,39,noun,nelke,veilchen,dist1,lower-right,FALSE,6965,Firefox,Windows,2026-02-20,w,5.409993155373032
1scatykX,40,verb,betrachten,zeigen,dist1,lower-right,FALSE,6759,Firefox,Windows,2026-02-20,w,5.409993155373032
1scatykX,41,noun,flunder,flunder,target,lower-right,TRUE,5547,Firefox,Windows,2026-02-20,w,5.409993155373032
1scatykX,42,noun,cello,marshmallow,dist2,upper-right,FALSE,20963,Firefox,Windows,2026-02-20,w,5.409993155373032
1ZDZ58uu,1,noun,auge,auge,target,upper-left,TRUE,3665,Chrome,Windows,2026-02-21,w,3.679671457905544
1ZDZ58uu,2,verb,schweben,springen,dist1,upper-left,FALSE,19797,Chrome,Windows,2026-02-21,w,3.679671457905544
1ZDZ58uu,3,noun,moehre,moehre,target,lower-right,TRUE,3122,Chrome,Windows,2026-02-21,w,3.679671457905544
1ZDZ58uu,4,noun,ameise,ameise,target,upper-right,TRUE,4405,Chrome,Windows,2026-02-21,w,3.679671457905544
1ZDZ58uu,5,verb,jonglieren,jonglieren,target,upper-right,TRUE,6524,Chrome,Windows,2026-02-21,w,3.679671457905544
1ZDZ58uu,6,noun,elch,elch,target,upper-left,TRUE,3452,Chrome,Windows,2026-02-21,w,3.679671457905544
1ZDZ58uu,7,noun,chor,chor,target,upper-right,TRUE,9021,Chrome,Windows,2026-02-21,w,3.679671457905544
1ZDZ58uu,8,verb,torkeln,torkeln,target,upper-left,TRUE,7490,Chrome,Windows,2026-02-21,w,3.679671457905544
1ZDZ58uu,9,verb,studieren,unterrichten,dist1,upper-right,FALSE,3771,Chrome,Windows,2026-02-21,w,3.679671457905544
1ZDZ58uu,10,verb,operieren,operieren,target,lower-left,TRUE,9696,Chrome,Windows,2026-02-21,w,3.679671457905544
1ZDZ58uu,11,noun,ventilator,ventilator,target,lower-left,TRUE,7594,Chrome,Windows,2026-02-21,w,3.679671457905544
1ZDZ58uu,12,verb,waehlen,waehlen,target,lower-right,TRUE,11401,Chrome,Windows,2026-02-21,w,3.679671457905544
1ZDZ58uu,13,noun,rucola,rucola,target,lower-right,TRUE,10776,Chrome,Windows,2026-02-21,w,3.679671457905544
1ZDZ58uu,14,verb,scheren,scheren,target,upper-right,TRUE,7499,Chrome,Windows,2026-02-21,w,3.679671457905544
1ZDZ58uu,15,noun,giraffe,giraffe,target,upper-left,TRUE,5010,Chrome,Windows,2026-02-21,w,3.679671457905544
1ZDZ58uu,16,noun,palme,palme,target,lower-left,TRUE,4035,Chrome,Windows,2026-02-21,w,3.679671457905544
1ZDZ58uu,17,verb,tadeln,tadeln,target,upper-right,TRUE,11199,Chrome,Windows,2026-02-21,w,3.679671457905544
1ZDZ58uu,18,noun,ananas,ananas,target,lower-right,TRUE,6608,Chrome,Windows,2026-02-21,w,3.679671457905544
1ZDZ58uu,19,verb,empfangen,empfangen,target,lower-right,TRUE,5279,Chrome,Windows,2026-02-21,w,3.679671457905544
1ZDZ58uu,20,verb,verloben,verloben,target,upper-left,TRUE,12467,Chrome,Windows,2026-02-21,w,3.679671457905544
1ZDZ58uu,21,noun,ozean,ozean,target,upper-left,TRUE,28883,Chrome,Windows,2026-02-21,w,3.679671457905544
1ZDZ58uu,22,verb,faulenzen,faulenzen,target,upper-left,TRUE,10019,Chrome,Windows,2026-02-21,w,3.679671457905544
1ZDZ58uu,23,noun,gazelle,gazelle,target,lower-right,TRUE,12804,Chrome,Windows,2026-02-21,w,3.679671457905544
1ZDZ58uu,24,verb,liefern,liefern,target,lower-left,TRUE,9603,Chrome,Windows,2026-02-21,w,3.679671457905544
1ZDZ58uu,25,noun,pfifferling,pfifferling,target,upper-left,TRUE,6345,Chrome,Windows,2026-02-21,w,3.679671457905544
1ZDZ58uu,26,verb,dekorieren,dekorieren,target,upper-right,TRUE,19214,Chrome,Windows,2026-02-21,w,3.679671457905544
1ZDZ58uu,27,verb,bekennen,bekennen,target,upper-left,TRUE,25758,Chrome,Windows,2026-02-21,w,3.679671457905544
1ZDZ58uu,28,noun,ruine,ruine,target,lower-right,TRUE,35533,Chrome,Windows,2026-02-21,w,3.679671457905544
1ZDZ58uu,29,noun,labyrinth,labyrinth,target,lower-left,TRUE,7922,Chrome,Windows,2026-02-21,w,3.679671457905544
1ZDZ58uu,30,noun,orchidee,orchidee,target,lower-left,TRUE,13819,Chrome,Windows,2026-02-21,w,3.679671457905544
1ZDZ58uu,31,verb,schwanken,schwanken,target,upper-right,TRUE,13380,Chrome,Windows,2026-02-21,w,3.679671457905544
1ZDZ58uu,32,noun,zucchini,zucchini,target,upper-right,TRUE,9323,Chrome,Windows,2026-02-21,w,3.679671457905544
1ZDZ58uu,33,verb,tuermen,tuermen,target,upper-left,TRUE,17494,Chrome,Windows,2026-02-21,w,3.679671457905544
1ZDZ58uu,34,verb,befreien,befreien,target,lower-right,TRUE,27512,Chrome,Windows,2026-02-21,w,3.679671457905544
1ZDZ58uu,35,noun,kajak,kajak,target,upper-left,TRUE,31462,Chrome,Windows,2026-02-21,w,3.679671457905544
1ZDZ58uu,36,verb,abseilen,abseilen,target,upper-left,TRUE,35986,Chrome,Windows,2026-02-21,w,3.679671457905544
1ZDZ58uu,37,verb,tuscheln,tuscheln,target,lower-right,TRUE,6933,Chrome,Windows,2026-02-21,w,3.679671457905544
1ZDZ58uu,38,noun,hummer,hummer,target,upper-right,TRUE,8468,Chrome,Windows,2026-02-21,w,3.679671457905544
1ZDZ58uu,39,noun,nelke,nelke,target,upper-right,TRUE,31578,Chrome,Windows,2026-02-21,w,3.679671457905544
1ZDZ58uu,40,verb,betrachten,betrachten,target,lower-left,TRUE,17901,Chrome,Windows,2026-02-21,w,3.679671457905544
1ZDZ58uu,41,noun,flunder,flunder,target,lower-right,TRUE,9080,Chrome,Windows,2026-02-21,w,3.679671457905544
1ZDZ58uu,42,noun,cello,cello,target,lower-left,TRUE,5767,Chrome,Windows,2026-02-21,w,3.679671457905544
28tV1GLP,1,noun,auge,auge,target,upper-left,TRUE,19531,Chrome,Windows,2026-02-20,w,5.645448323066393
28tV1GLP,2,verb,schweben,schweben,target,lower-left,TRUE,6721,Chrome,Windows,2026-02-20,w,5.645448323066393
28tV1GLP,3,noun,moehre,moehre,target,lower-right,TRUE,4495,Chrome,Windows,2026-02-20,w,5.645448323066393
28tV1GLP,4,noun,ameise,ameise,target,upper-right,TRUE,5845,Chrome,Windows,2026-02-20,w,5.645448323066393
28tV1GLP,5,verb,jonglieren,jonglieren,target,upper-right,TRUE,6183,Chrome,Windows,2026-02-20,w,5.645448323066393
28tV1GLP,6,noun,elch,elch,target,upper-left,TRUE,7591,Chrome,Windows,2026-02-20,w,5.645448323066393
28tV1GLP,7,noun,chor,chor,target,upper-right,TRUE,24373,Chrome,Windows,2026-02-20,w,5.645448323066393
28tV1GLP,8,verb,torkeln,huepfen,dist1,lower-left,FALSE,14564,Chrome,Windows,2026-02-20,w,5.645448323066393
28tV1GLP,9,verb,studieren,unterrichten,dist1,upper-right,FALSE,12515,Chrome,Windows,2026-02-20,w,5.645448323066393
28tV1GLP,10,verb,operieren,operieren,target,lower-left,TRUE,6478,Chrome,Windows,2026-02-20,w,5.645448323066393
28tV1GLP,11,noun,ventilator,ventilator,target,lower-left,TRUE,5741,Chrome,Windows,2026-02-20,w,5.645448323066393
28tV1GLP,12,verb,waehlen,waehlen,target,lower-right,TRUE,8335,Chrome,Windows,2026-02-20,w,5.645448323066393
28tV1GLP,13,noun,rucola,rucola,target,lower-right,TRUE,5786,Chrome,Windows,2026-02-20,w,5.645448323066393
28tV1GLP,14,verb,scheren,scheren,target,upper-right,TRUE,7179,Chrome,Windows,2026-02-20,w,5.645448323066393
28tV1GLP,15,noun,giraffe,giraffe,target,upper-left,TRUE,5789,Chrome,Windows,2026-02-20,w,5.645448323066393
28tV1GLP,16,noun,palme,palme,target,lower-left,TRUE,5297,Chrome,Windows,2026-02-20,w,5.645448323066393
28tV1GLP,17,verb,tadeln,tadeln,target,upper-right,TRUE,10845,Chrome,Windows,2026-02-20,w,5.645448323066393
28tV1GLP,18,noun,ananas,ananas,target,lower-right,TRUE,6577,Chrome,Windows,2026-02-20,w,5.645448323066393
28tV1GLP,19,verb,empfangen,verschicken,dist1,lower-left,FALSE,9128,Chrome,Windows,2026-02-20,w,5.645448323066393
28tV1GLP,20,verb,verloben,heiraten,dist1,lower-right,FALSE,7023,Chrome,Windows,2026-02-20,w,5.645448323066393
28tV1GLP,21,noun,ozean,ozean,target,upper-left,TRUE,6513,Chrome,Windows,2026-02-20,w,5.645448323066393
28tV1GLP,22,verb,faulenzen,faulenzen,target,upper-left,TRUE,7833,Chrome,Windows,2026-02-20,w,5.645448323066393
28tV1GLP,23,noun,gazelle,gazelle,target,lower-right,TRUE,15885,Chrome,Windows,2026-02-20,w,5.645448323066393
28tV1GLP,24,verb,liefern,liefern,target,lower-left,TRUE,10399,Chrome,Windows,2026-02-20,w,5.645448323066393
28tV1GLP,25,noun,pfifferling,pfifferling,target,upper-left,TRUE,6995,Chrome,Windows,2026-02-20,w,5.645448323066393
28tV1GLP,26,verb,dekorieren,dekorieren,target,upper-right,TRUE,6627,Chrome,Windows,2026-02-20,w,5.645448323066393
28tV1GLP,27,verb,bekennen,bekennen,target,upper-left,TRUE,21413,Chrome,Windows,2026-02-20,w,5.645448323066393
28tV1GLP,28,noun,ruine,ruine,target,lower-right,TRUE,7513,Chrome,Windows,2026-02-20,w,5.645448323066393
28tV1GLP,29,noun,labyrinth,labyrinth,target,lower-left,TRUE,5100,Chrome,Windows,2026-02-20,w,5.645448323066393
28tV1GLP,30,noun,orchidee,orchidee,target,lower-left,TRUE,5902,Chrome,Windows,2026-02-20,w,5.645448323066393
28tV1GLP,31,verb,schwanken,schwanken,target,upper-right,TRUE,9518,Chrome,Windows,2026-02-20,w,5.645448323066393
28tV1GLP,32,noun,zucchini,zucchini,target,upper-right,TRUE,6683,Chrome,Windows,2026-02-20,w,5.645448323066393
28tV1GLP,33,verb,tuermen,kruemmen,dist2,upper-right,FALSE,22237,Chrome,Windows,2026-02-20,w,5.645448323066393
28tV1GLP,34,verb,befreien,befreien,target,lower-right,TRUE,6008,Chrome,Windows,2026-02-20,w,5.645448323066393
28tV1GLP,35,noun,kajak,kajak,target,upper-left,TRUE,8650,Chrome,Windows,2026-02-20,w,5.645448323066393
28tV1GLP,36,verb,abseilen,abseilen,target,upper-left,TRUE,5847,Chrome,Windows,2026-02-20,w,5.645448323066393
28tV1GLP,37,verb,tuscheln,tuscheln,target,lower-right,TRUE,7787,Chrome,Windows,2026-02-20,w,5.645448323066393
28tV1GLP,38,noun,hummer,hummer,target,upper-right,TRUE,10060,Chrome,Windows,2026-02-20,w,5.645448323066393
28tV1GLP,39,noun,nelke,nelke,target,upper-right,TRUE,27033,Chrome,Windows,2026-02-20,w,5.645448323066393
28tV1GLP,40,verb,betrachten,zeigen,dist1,lower-right,FALSE,11609,Chrome,Windows,2026-02-20,w,5.645448323066393
28tV1GLP,41,noun,flunder,orca,dist1,lower-left,FALSE,10324,Chrome,Windows,2026-02-20,w,5.645448323066393
28tV1GLP,42,noun,cello,harfe,dist1,lower-right,FALSE,6807,Chrome,Windows,2026-02-20,w,5.645448323066393
2EYFWyxP,1,noun,auge,auge,target,upper-left,TRUE,6860,Safari,Mac OS X,2026-02-22,m,3.6605065023956196
2EYFWyxP,2,verb,schweben,schweben,target,lower-left,TRUE,5261,Safari,Mac OS X,2026-02-22,m,3.6605065023956196
2EYFWyxP,3,noun,moehre,moehre,target,lower-right,TRUE,4366,Safari,Mac OS X,2026-02-22,m,3.6605065023956196
2EYFWyxP,4,noun,ameise,ameise,target,upper-right,TRUE,7037,Safari,Mac OS X,2026-02-22,m,3.6605065023956196
2EYFWyxP,5,verb,jonglieren,jonglieren,target,upper-right,TRUE,7742,Safari,Mac OS X,2026-02-22,m,3.6605065023956196
2EYFWyxP,6,noun,elch,elch,target,upper-left,TRUE,5500,Safari,Mac OS X,2026-02-22,m,3.6605065023956196
2EYFWyxP,7,noun,chor,orchester,dist1,lower-right,FALSE,8676,Safari,Mac OS X,2026-02-22,m,3.6605065023956196
2EYFWyxP,8,verb,torkeln,torkeln,target,upper-left,TRUE,8725,Safari,Mac OS X,2026-02-22,m,3.6605065023956196
2EYFWyxP,9,verb,studieren,marschieren,dist2,upper-left,FALSE,11435,Safari,Mac OS X,2026-02-22,m,3.6605065023956196
2EYFWyxP,10,verb,operieren,operieren,target,lower-left,TRUE,6717,Safari,Mac OS X,2026-02-22,m,3.6605065023956196
2EYFWyxP,11,noun,ventilator,ventilator,target,lower-left,TRUE,6952,Safari,Mac OS X,2026-02-22,m,3.6605065023956196
2EYFWyxP,12,verb,waehlen,bauen,dist3,upper-left,FALSE,9317,Safari,Mac OS X,2026-02-22,m,3.6605065023956196
2EYFWyxP,13,noun,rucola,rosenkohl,dist1,lower-left,FALSE,8897,Safari,Mac OS X,2026-02-22,m,3.6605065023956196
2EYFWyxP,14,verb,scheren,streicheln,dist1,upper-left,FALSE,11768,Safari,Mac OS X,2026-02-22,m,3.6605065023956196
2EYFWyxP,15,noun,giraffe,giraffe,target,upper-left,TRUE,6050,Safari,Mac OS X,2026-02-22,m,3.6605065023956196
2EYFWyxP,16,noun,palme,palme,target,lower-left,TRUE,13135,Safari,Mac OS X,2026-02-22,m,3.6605065023956196
2EYFWyxP,17,verb,tadeln,tadeln,target,upper-right,TRUE,8988,Safari,Mac OS X,2026-02-22,m,3.6605065023956196
2EYFWyxP,18,noun,ananas,wassermelone,dist1,lower-left,FALSE,6137,Safari,Mac OS X,2026-02-22,m,3.6605065023956196
2EYFWyxP,19,verb,empfangen,einfangen,dist2,upper-left,FALSE,10886,Safari,Mac OS X,2026-02-22,m,3.6605065023956196
2EYFWyxP,20,verb,verloben,heiraten,dist1,lower-right,FALSE,12268,Safari,Mac OS X,2026-02-22,m,3.6605065023956196
2EYFWyxP,21,noun,ozean,pelikan,dist2,lower-right,FALSE,8326,Safari,Mac OS X,2026-02-22,m,3.6605065023956196
2EYFWyxP,22,verb,faulenzen,begrenzen,dist1,lower-right,FALSE,7549,Safari,Mac OS X,2026-02-22,m,3.6605065023956196
2EYFWyxP,23,noun,gazelle,reh,dist1,upper-right,FALSE,13474,Safari,Mac OS X,2026-02-22,m,3.6605065023956196
2EYFWyxP,24,verb,liefern,troesten,dist3,upper-right,FALSE,11787,Safari,Mac OS X,2026-02-22,m,3.6605065023956196
2EYFWyxP,25,noun,pfifferling,schmetterling,dist2,lower-left,FALSE,6571,Safari,Mac OS X,2026-02-22,m,3.6605065023956196
2EYFWyxP,26,verb,dekorieren,ignorieren,dist2,upper-left,FALSE,19683,Safari,Mac OS X,2026-02-22,m,3.6605065023956196
2EYFWyxP,27,verb,bekennen,verbrennen,dist2,upper-right,FALSE,11051,Safari,Mac OS X,2026-02-22,m,3.6605065023956196
2EYFWyxP,28,noun,ruine,ruine,target,lower-right,TRUE,28237,Safari,Mac OS X,2026-02-22,m,3.6605065023956196
2EYFWyxP,29,noun,labyrinth,labyrinth,target,lower-left,TRUE,6232,Safari,Mac OS X,2026-02-22,m,3.6605065023956196
2EYFWyxP,30,noun,orchidee,zeh,dist2,upper-right,FALSE,8960,Safari,Mac OS X,2026-02-22,m,3.6605065023956196
2EYFWyxP,31,verb,schwanken,schwanken,target,upper-right,TRUE,6727,Safari,Mac OS X,2026-02-22,m,3.6605065023956196
2EYFWyxP,32,noun,zucchini,bikini,dist2,upper-left,FALSE,8217,Safari,Mac OS X,2026-02-22,m,3.6605065023956196
2EYFWyxP,33,verb,tuermen,tuermen,target,upper-left,TRUE,21785,Safari,Mac OS X,2026-02-22,m,3.6605065023956196
2EYFWyxP,34,verb,befreien,befreien,target,lower-right,TRUE,8764,Safari,Mac OS X,2026-02-22,m,3.6605065023956196
2EYFWyxP,35,noun,kajak,segelboot,dist1,lower-left,FALSE,16623,Safari,Mac OS X,2026-02-22,m,3.6605065023956196
2EYFWyxP,36,verb,abseilen,herunterklettern,dist1,lower-left,FALSE,9378,Safari,Mac OS X,2026-02-22,m,3.6605065023956196
2EYFWyxP,37,verb,tuscheln,singen,dist3,upper-left,FALSE,11937,Safari,Mac OS X,2026-02-22,m,3.6605065023956196
2EYFWyxP,38,noun,hummer,hummer,target,upper-right,TRUE,5385,Safari,Mac OS X,2026-02-22,m,3.6605065023956196
2EYFWyxP,39,noun,nelke,nelke,target,upper-right,TRUE,14656,Safari,Mac OS X,2026-02-22,m,3.6605065023956196
2EYFWyxP,40,verb,betrachten,bewachen,dist2,upper-right,FALSE,7295,Safari,Mac OS X,2026-02-22,m,3.6605065023956196
2EYFWyxP,41,noun,flunder,pyramide,dist3,upper-right,FALSE,12395,Safari,Mac OS X,2026-02-22,m,3.6605065023956196
2EYFWyxP,42,noun,cello,cello,target,lower-left,TRUE,4912,Safari,Mac OS X,2026-02-22,m,3.6605065023956196
2fwtVGrM,1,noun,auge,auge,target,upper-left,TRUE,17525,Firefox,Windows,2026-02-22,m,4.139630390143737
2fwtVGrM,2,verb,schweben,springen,dist1,upper-left,FALSE,12126,Firefox,Windows,2026-02-22,m,4.139630390143737
2fwtVGrM,3,noun,moehre,moehre,target,lower-right,TRUE,5420,Firefox,Windows,2026-02-22,m,4.139630390143737
2fwtVGrM,4,noun,ameise,ameise,target,upper-right,TRUE,5390,Firefox,Windows,2026-02-22,m,4.139630390143737
2fwtVGrM,5,verb,jonglieren,jonglieren,target,upper-right,TRUE,5901,Firefox,Windows,2026-02-22,m,4.139630390143737
2fwtVGrM,6,noun,elch,elch,target,upper-left,TRUE,7167,Firefox,Windows,2026-02-22,m,4.139630390143737
2fwtVGrM,7,noun,chor,chor,target,upper-right,TRUE,6710,Firefox,Windows,2026-02-22,m,4.139630390143737
2fwtVGrM,8,verb,torkeln,torkeln,target,upper-left,TRUE,12000,Firefox,Windows,2026-02-22,m,4.139630390143737
2fwtVGrM,9,verb,studieren,unterrichten,dist1,upper-right,FALSE,6602,Firefox,Windows,2026-02-22,m,4.139630390143737
2fwtVGrM,10,verb,operieren,operieren,target,lower-left,TRUE,7867,Firefox,Windows,2026-02-22,m,4.139630390143737
2fwtVGrM,11,noun,ventilator,ventilator,target,lower-left,TRUE,6823,Firefox,Windows,2026-02-22,m,4.139630390143737
2fwtVGrM,12,verb,waehlen,ueberlegen,dist1,upper-right,FALSE,6006,Firefox,Windows,2026-02-22,m,4.139630390143737
2fwtVGrM,13,noun,rucola,rosenkohl,dist1,lower-left,FALSE,6872,Firefox,Windows,2026-02-22,m,4.139630390143737
2fwtVGrM,14,verb,scheren,scheren,target,upper-right,TRUE,8657,Firefox,Windows,2026-02-22,m,4.139630390143737
2fwtVGrM,15,noun,giraffe,giraffe,target,upper-left,TRUE,4941,Firefox,Windows,2026-02-22,m,4.139630390143737
2fwtVGrM,16,noun,palme,palme,target,lower-left,TRUE,5541,Firefox,Windows,2026-02-22,m,4.139630390143737
2fwtVGrM,17,verb,tadeln,tadeln,target,upper-right,TRUE,12696,Firefox,Windows,2026-02-22,m,4.139630390143737
2fwtVGrM,18,noun,ananas,ananas,target,lower-right,TRUE,5947,Firefox,Windows,2026-02-22,m,4.139630390143737
2fwtVGrM,19,verb,empfangen,einfangen,dist2,upper-left,FALSE,14111,Firefox,Windows,2026-02-22,m,4.139630390143737
2fwtVGrM,20,verb,verloben,joggen,dist3,upper-right,FALSE,17065,Firefox,Windows,2026-02-22,m,4.139630390143737
2fwtVGrM,21,noun,ozean,ozean,target,upper-left,TRUE,11354,Firefox,Windows,2026-02-22,m,4.139630390143737
2fwtVGrM,22,verb,faulenzen,faulenzen,target,upper-left,TRUE,13320,Firefox,Windows,2026-02-22,m,4.139630390143737
2fwtVGrM,23,noun,gazelle,gazelle,target,lower-right,TRUE,5416,Firefox,Windows,2026-02-22,m,4.139630390143737
2fwtVGrM,24,verb,liefern,liefern,target,lower-left,TRUE,7147,Firefox,Windows,2026-02-22,m,4.139630390143737
2fwtVGrM,25,noun,pfifferling,schmetterling,dist2,lower-left,FALSE,8814,Firefox,Windows,2026-02-22,m,4.139630390143737
2fwtVGrM,26,verb,dekorieren,dekorieren,target,upper-right,TRUE,10974,Firefox,Windows,2026-02-22,m,4.139630390143737
2fwtVGrM,27,verb,bekennen,bekennen,target,upper-left,TRUE,24131,Firefox,Windows,2026-02-22,m,4.139630390143737
2fwtVGrM,28,noun,ruine,ruine,target,lower-right,TRUE,13454,Firefox,Windows,2026-02-22,m,4.139630390143737
2fwtVGrM,29,noun,labyrinth,labyrinth,target,lower-left,TRUE,5682,Firefox,Windows,2026-02-22,m,4.139630390143737
2fwtVGrM,30,noun,orchidee,orchidee,target,lower-left,TRUE,7841,Firefox,Windows,2026-02-22,m,4.139630390143737
2fwtVGrM,31,verb,schwanken,drehen,dist1,lower-right,FALSE,18455,Firefox,Windows,2026-02-22,m,4.139630390143737
2fwtVGrM,32,noun,zucchini,zucchini,target,upper-right,TRUE,5771,Firefox,Windows,2026-02-22,m,4.139630390143737
2fwtVGrM,33,verb,tuermen,oeffnen,dist3,lower-right,FALSE,14768,Firefox,Windows,2026-02-22,m,4.139630390143737
2fwtVGrM,34,verb,befreien,befreien,target,lower-right,TRUE,8705,Firefox,Windows,2026-02-22,m,4.139630390143737
2fwtVGrM,35,noun,kajak,kajak,target,upper-left,TRUE,7749,Firefox,Windows,2026-02-22,m,4.139630390143737
2fwtVGrM,36,verb,abseilen,abseilen,target,upper-left,TRUE,7052,Firefox,Windows,2026-02-22,m,4.139630390143737
2fwtVGrM,37,verb,tuscheln,tuschen,dist2,upper-right,FALSE,17550,Firefox,Windows,2026-02-22,m,4.139630390143737
2fwtVGrM,38,noun,hummer,hummer,target,upper-right,TRUE,6268,Firefox,Windows,2026-02-22,m,4.139630390143737
2fwtVGrM,39,noun,nelke,veilchen,dist1,lower-right,FALSE,8944,Firefox,Windows,2026-02-22,m,4.139630390143737
2fwtVGrM,40,verb,betrachten,bewachen,dist2,upper-right,FALSE,9291,Firefox,Windows,2026-02-22,m,4.139630390143737
2fwtVGrM,41,noun,flunder,flunder,target,lower-right,TRUE,7904,Firefox,Windows,2026-02-22,m,4.139630390143737
2fwtVGrM,42,noun,cello,marshmallow,dist2,upper-right,FALSE,4086,Firefox,Windows,2026-02-22,m,4.139630390143737
2x5XgLfV,1,noun,auge,auge,target,upper-left,TRUE,3113,Opera,Windows,2026-02-20,m,6.401095140314853
2x5XgLfV,2,verb,schweben,schweben,target,lower-left,TRUE,5296,Opera,Windows,2026-02-20,m,6.401095140314853
2x5XgLfV,3,noun,moehre,moehre,target,lower-right,TRUE,5066,Opera,Windows,2026-02-20,m,6.401095140314853
2x5XgLfV,4,noun,ameise,ameise,target,upper-right,TRUE,4062,Opera,Windows,2026-02-20,m,6.401095140314853
2x5XgLfV,5,verb,jonglieren,jonglieren,target,upper-right,TRUE,3879,Opera,Windows,2026-02-20,m,6.401095140314853
2x5XgLfV,6,noun,elch,elch,target,upper-left,TRUE,2710,Opera,Windows,2026-02-20,m,6.401095140314853
2x5XgLfV,7,noun,chor,orchester,dist1,lower-right,FALSE,4051,Opera,Windows,2026-02-20,m,6.401095140314853
2x5XgLfV,8,verb,torkeln,schnorcheln,dist2,upper-right,FALSE,7476,Opera,Windows,2026-02-20,m,6.401095140314853
2x5XgLfV,9,verb,studieren,unterrichten,dist1,upper-right,FALSE,5377,Opera,Windows,2026-02-20,m,6.401095140314853
2x5XgLfV,10,verb,operieren,operieren,target,lower-left,TRUE,5239,Opera,Windows,2026-02-20,m,6.401095140314853
2x5XgLfV,11,noun,ventilator,ventilator,target,lower-left,TRUE,4476,Opera,Windows,2026-02-20,m,6.401095140314853
2x5XgLfV,12,verb,waehlen,waehlen,target,lower-right,TRUE,8068,Opera,Windows,2026-02-20,m,6.401095140314853
2x5XgLfV,13,noun,rucola,rosenkohl,dist1,lower-left,FALSE,5068,Opera,Windows,2026-02-20,m,6.401095140314853
2x5XgLfV,14,verb,scheren,scheren,target,upper-right,TRUE,5829,Opera,Windows,2026-02-20,m,6.401095140314853
2x5XgLfV,15,noun,giraffe,giraffe,target,upper-left,TRUE,3111,Opera,Windows,2026-02-20,m,6.401095140314853
2x5XgLfV,16,noun,palme,palme,target,lower-left,TRUE,5355,Opera,Windows,2026-02-20,m,6.401095140314853
2x5XgLfV,17,verb,tadeln,radeln,dist2,lower-left,FALSE,8750,Opera,Windows,2026-02-20,m,6.401095140314853
2x5XgLfV,18,noun,ananas,ananas,target,lower-right,TRUE,3979,Opera,Windows,2026-02-20,m,6.401095140314853
2x5XgLfV,19,verb,empfangen,verschicken,dist1,lower-left,FALSE,8079,Opera,Windows,2026-02-20,m,6.401095140314853
2x5XgLfV,20,verb,verloben,heiraten,dist1,lower-right,FALSE,5968,Opera,Windows,2026-02-20,m,6.401095140314853
2x5XgLfV,21,noun,ozean,ozean,target,upper-left,TRUE,4170,Opera,Windows,2026-02-20,m,6.401095140314853
2x5XgLfV,22,verb,faulenzen,faulenzen,target,upper-left,TRUE,4995,Opera,Windows,2026-02-20,m,6.401095140314853
2x5XgLfV,23,noun,gazelle,gazelle,target,lower-right,TRUE,3758,Opera,Windows,2026-02-20,m,6.401095140314853
2x5XgLfV,24,verb,liefern,liefern,target,lower-left,TRUE,5080,Opera,Windows,2026-02-20,m,6.401095140314853
2x5XgLfV,25,noun,pfifferling,pfifferling,target,upper-left,TRUE,4781,Opera,Windows,2026-02-20,m,6.401095140314853
2x5XgLfV,26,verb,dekorieren,dekorieren,target,upper-right,TRUE,4724,Opera,Windows,2026-02-20,m,6.401095140314853
2x5XgLfV,27,verb,bekennen,ziehen,dist3,lower-left,FALSE,6689,Opera,Windows,2026-02-20,m,6.401095140314853
2x5XgLfV,28,noun,ruine,ruine,target,lower-right,TRUE,4686,Opera,Windows,2026-02-20,m,6.401095140314853
2x5XgLfV,29,noun,labyrinth,labyrinth,target,lower-left,TRUE,3456,Opera,Windows,2026-02-20,m,6.401095140314853
2x5XgLfV,30,noun,orchidee,orchidee,target,lower-left,TRUE,4258,Opera,Windows,2026-02-20,m,6.401095140314853
2x5XgLfV,31,verb,schwanken,schwanken,target,upper-right,TRUE,6946,Opera,Windows,2026-02-20,m,6.401095140314853
2x5XgLfV,32,noun,zucchini,zucchini,target,upper-right,TRUE,3747,Opera,Windows,2026-02-20,m,6.401095140314853
2x5XgLfV,33,verb,tuermen,tuermen,target,upper-left,TRUE,7047,Opera,Windows,2026-02-20,m,6.401095140314853
2x5XgLfV,34,verb,befreien,befreien,target,lower-right,TRUE,3664,Opera,Windows,2026-02-20,m,6.401095140314853
2x5XgLfV,35,noun,kajak,bumerang,dist3,lower-right,FALSE,4713,Opera,Windows,2026-02-20,m,6.401095140314853
2x5XgLfV,36,verb,abseilen,abseilen,target,upper-left,TRUE,5183,Opera,Windows,2026-02-20,m,6.401095140314853
2x5XgLfV,37,verb,tuscheln,tuscheln,target,lower-right,TRUE,5158,Opera,Windows,2026-02-20,m,6.401095140314853
2x5XgLfV,38,noun,hummer,hummer,target,upper-right,TRUE,5075,Opera,Windows,2026-02-20,m,6.401095140314853
2x5XgLfV,39,noun,nelke,nelke,target,upper-right,TRUE,5840,Opera,Windows,2026-02-20,m,6.401095140314853
2x5XgLfV,40,verb,betrachten,betrachten,target,lower-left,TRUE,4943,Opera,Windows,2026-02-20,m,6.401095140314853
2x5XgLfV,41,noun,flunder,flunder,target,lower-right,TRUE,4296,Opera,Windows,2026-02-20,m,6.401095140314853
2x5XgLfV,42,noun,cello,harfe,dist1,lower-right,FALSE,5236,Opera,Windows,2026-02-20,m,6.401095140314853
3LWEozpn,1,noun,auge,auge,target,upper-left,TRUE,5694,Chrome,Windows,2026-02-22,m,3.619438740588638
3LWEozpn,2,verb,schweben,schweben,target,lower-left,TRUE,5307,Chrome,Windows,2026-02-22,m,3.619438740588638
3LWEozpn,3,noun,moehre,moehre,target,lower-right,TRUE,3790,Chrome,Windows,2026-02-22,m,3.619438740588638
3LWEozpn,4,noun,ameise,ameise,target,upper-right,TRUE,3923,Chrome,Windows,2026-02-22,m,3.619438740588638
3LWEozpn,5,verb,jonglieren,jonglieren,target,upper-right,TRUE,4428,Chrome,Windows,2026-02-22,m,3.619438740588638
3LWEozpn,6,noun,elch,elch,target,upper-left,TRUE,4370,Chrome,Windows,2026-02-22,m,3.619438740588638
3LWEozpn,7,noun,chor,orchester,dist1,lower-right,FALSE,5209,Chrome,Windows,2026-02-22,m,3.619438740588638
3LWEozpn,8,verb,torkeln,torkeln,target,upper-left,TRUE,5376,Chrome,Windows,2026-02-22,m,3.619438740588638
3LWEozpn,9,verb,studieren,liegen,dist3,lower-left,FALSE,5791,Chrome,Windows,2026-02-22,m,3.619438740588638
3LWEozpn,10,verb,operieren,spazieren,dist2,lower-right,FALSE,7332,Chrome,Windows,2026-02-22,m,3.619438740588638
3LWEozpn,11,noun,ventilator,faecher,dist1,lower-right,FALSE,5348,Chrome,Windows,2026-02-22,m,3.619438740588638
3LWEozpn,12,verb,waehlen,bauen,dist3,upper-left,FALSE,6680,Chrome,Windows,2026-02-22,m,3.619438740588638
3LWEozpn,13,noun,rucola,drakula,dist2,upper-left,FALSE,11989,Chrome,Windows,2026-02-22,m,3.619438740588638
3LWEozpn,14,verb,scheren,leeren,dist2,lower-right,FALSE,11059,Chrome,Windows,2026-02-22,m,3.619438740588638
3LWEozpn,15,noun,giraffe,giraffe,target,upper-left,TRUE,3279,Chrome,Windows,2026-02-22,m,3.619438740588638
3LWEozpn,16,noun,palme,palme,target,lower-left,TRUE,11615,Chrome,Windows,2026-02-22,m,3.619438740588638
3LWEozpn,17,verb,tadeln,tadeln,target,upper-right,TRUE,5795,Chrome,Windows,2026-02-22,m,3.619438740588638
3LWEozpn,18,noun,ananas,ananas,target,lower-right,TRUE,35831,Chrome,Windows,2026-02-22,m,3.619438740588638
3LWEozpn,19,verb,empfangen,einfangen,dist2,upper-left,FALSE,5047,Chrome,Windows,2026-02-22,m,3.619438740588638
3LWEozpn,20,verb,verloben,verloben,target,upper-left,TRUE,4455,Chrome,Windows,2026-02-22,m,3.619438740588638
3LWEozpn,21,noun,ozean,ozean,target,upper-left,TRUE,3890,Chrome,Windows,2026-02-22,m,3.619438740588638
3LWEozpn,22,verb,faulenzen,begrenzen,dist1,lower-right,FALSE,10560,Chrome,Windows,2026-02-22,m,3.619438740588638
3LWEozpn,23,noun,gazelle,gazelle,target,lower-right,TRUE,6171,Chrome,Windows,2026-02-22,m,3.619438740588638
3LWEozpn,24,verb,liefern,liefern,target,lower-left,TRUE,5830,Chrome,Windows,2026-02-22,m,3.619438740588638
3LWEozpn,25,noun,pfifferling,diamant,dist3,upper-right,FALSE,4904,Chrome,Windows,2026-02-22,m,3.619438740588638
3LWEozpn,26,verb,dekorieren,dekorieren,target,upper-right,TRUE,4445,Chrome,Windows,2026-02-22,m,3.619438740588638
3LWEozpn,27,verb,bekennen,ziehen,dist3,lower-left,FALSE,18113,Chrome,Windows,2026-02-22,m,3.619438740588638
3LWEozpn,28,noun,ruine,torwart,dist3,upper-left,FALSE,7629,Chrome,Windows,2026-02-22,m,3.619438740588638
3LWEozpn,29,noun,labyrinth,labyrinth,target,lower-left,TRUE,4943,Chrome,Windows,2026-02-22,m,3.619438740588638
3LWEozpn,30,noun,orchidee,zeh,dist2,upper-right,FALSE,8100,Chrome,Windows,2026-02-22,m,3.619438740588638
3LWEozpn,31,verb,schwanken,drehen,dist1,lower-right,FALSE,6664,Chrome,Windows,2026-02-22,m,3.619438740588638
3LWEozpn,32,noun,zucchini,zucchini,target,upper-right,TRUE,4741,Chrome,Windows,2026-02-22,m,3.619438740588638
3LWEozpn,33,verb,tuermen,tuermen,target,upper-left,TRUE,26211,Chrome,Windows,2026-02-22,m,3.619438740588638
3LWEozpn,34,verb,befreien,schreien,dist2,upper-left,FALSE,4453,Chrome,Windows,2026-02-22,m,3.619438740588638
3LWEozpn,35,noun,kajak,kajak,target,upper-left,TRUE,5134,Chrome,Windows,2026-02-22,m,3.619438740588638
3LWEozpn,36,verb,abseilen,herunterklettern,dist1,lower-left,FALSE,5740,Chrome,Windows,2026-02-22,m,3.619438740588638
3LWEozpn,37,verb,tuscheln,tuschen,dist2,upper-right,FALSE,15578,Chrome,Windows,2026-02-22,m,3.619438740588638
3LWEozpn,38,noun,hummer,hummer,target,upper-right,TRUE,5495,Chrome,Windows,2026-02-22,m,3.619438740588638
3LWEozpn,39,noun,nelke,veilchen,dist1,lower-right,FALSE,6897,Chrome,Windows,2026-02-22,m,3.619438740588638
3LWEozpn,40,verb,betrachten,bewachen,dist2,upper-right,FALSE,4688,Chrome,Windows,2026-02-22,m,3.619438740588638
3LWEozpn,41,noun,flunder,flunder,target,lower-right,TRUE,3703,Chrome,Windows,2026-02-22,m,3.619438740588638
3LWEozpn,42,noun,cello,harfe,dist1,lower-right,FALSE,4147,Chrome,Windows,2026-02-22,m,3.619438740588638
3nV69a6p,1,noun,auge,auge,target,upper-left,TRUE,6551,Chrome,Windows,2026-02-22,m,5.286789869952088
3nV69a6p,2,verb,schweben,schweben,target,lower-left,TRUE,5650,Chrome,Windows,2026-02-22,m,5.286789869952088
3nV69a6p,3,noun,moehre,moehre,target,lower-right,TRUE,4683,Chrome,Windows,2026-02-22,m,5.286789869952088
3nV69a6p,4,noun,ameise,ameise,target,upper-right,TRUE,4276,Chrome,Windows,2026-02-22,m,5.286789869952088
3nV69a6p,5,verb,jonglieren,jonglieren,target,upper-right,TRUE,4364,Chrome,Windows,2026-02-22,m,5.286789869952088
3nV69a6p,6,noun,elch,elch,target,upper-left,TRUE,5238,Chrome,Windows,2026-02-22,m,5.286789869952088
3nV69a6p,7,noun,chor,chor,target,upper-right,TRUE,4372,Chrome,Windows,2026-02-22,m,5.286789869952088
3nV69a6p,8,verb,torkeln,torkeln,target,upper-left,TRUE,6926,Chrome,Windows,2026-02-22,m,5.286789869952088
3nV69a6p,9,verb,studieren,unterrichten,dist1,upper-right,FALSE,6774,Chrome,Windows,2026-02-22,m,5.286789869952088
3nV69a6p,10,verb,operieren,operieren,target,lower-left,TRUE,6656,Chrome,Windows,2026-02-22,m,5.286789869952088
3nV69a6p,11,noun,ventilator,ventilator,target,lower-left,TRUE,7055,Chrome,Windows,2026-02-22,m,5.286789869952088
3nV69a6p,12,verb,waehlen,ueberlegen,dist1,upper-right,FALSE,7264,Chrome,Windows,2026-02-22,m,5.286789869952088
3nV69a6p,13,noun,rucola,drakula,dist2,upper-left,FALSE,7216,Chrome,Windows,2026-02-22,m,5.286789869952088
3nV69a6p,14,verb,scheren,scheren,target,upper-right,TRUE,5662,Chrome,Windows,2026-02-22,m,5.286789869952088
3nV69a6p,15,noun,giraffe,giraffe,target,upper-left,TRUE,4974,Chrome,Windows,2026-02-22,m,5.286789869952088
3nV69a6p,16,noun,palme,kaktus,dist1,upper-right,FALSE,7214,Chrome,Windows,2026-02-22,m,5.286789869952088
3nV69a6p,17,verb,tadeln,tadeln,target,upper-right,TRUE,7766,Chrome,Windows,2026-02-22,m,5.286789869952088
3nV69a6p,18,noun,ananas,ananas,target,lower-right,TRUE,5154,Chrome,Windows,2026-02-22,m,5.286789869952088
3nV69a6p,19,verb,empfangen,empfangen,target,lower-right,TRUE,6976,Chrome,Windows,2026-02-22,m,5.286789869952088
3nV69a6p,20,verb,verloben,heiraten,dist1,lower-right,FALSE,8181,Chrome,Windows,2026-02-22,m,5.286789869952088
3nV69a6p,21,noun,ozean,ozean,target,upper-left,TRUE,5464,Chrome,Windows,2026-02-22,m,5.286789869952088
3nV69a6p,22,verb,faulenzen,faulenzen,target,upper-left,TRUE,5266,Chrome,Windows,2026-02-22,m,5.286789869952088
3nV69a6p,23,noun,gazelle,gazelle,target,lower-right,TRUE,4783,Chrome,Windows,2026-02-22,m,5.286789869952088
3nV69a6p,24,verb,liefern,liefern,target,lower-left,TRUE,4828,Chrome,Windows,2026-02-22,m,5.286789869952088
3nV69a6p,25,noun,pfifferling,schmetterling,dist2,lower-left,FALSE,6098,Chrome,Windows,2026-02-22,m,5.286789869952088
3nV69a6p,26,verb,dekorieren,dekorieren,target,upper-right,TRUE,5398,Chrome,Windows,2026-02-22,m,5.286789869952088
3nV69a6p,27,verb,bekennen,bekennen,target,upper-left,TRUE,7718,Chrome,Windows,2026-02-22,m,5.286789869952088
3nV69a6p,28,noun,ruine,ruine,target,lower-right,TRUE,5417,Chrome,Windows,2026-02-22,m,5.286789869952088
3nV69a6p,29,noun,labyrinth,labyrinth,target,lower-left,TRUE,4572,Chrome,Windows,2026-02-22,m,5.286789869952088
3nV69a6p,30,noun,orchidee,banner,dist3,lower-right,FALSE,9132,Chrome,Windows,2026-02-22,m,5.286789869952088
3nV69a6p,31,verb,schwanken,drehen,dist1,lower-right,FALSE,6010,Chrome,Windows,2026-02-22,m,5.286789869952088
3nV69a6p,32,noun,zucchini,zucchini,target,upper-right,TRUE,4665,Chrome,Windows,2026-02-22,m,5.286789869952088
3nV69a6p,33,verb,tuermen,tuermen,target,upper-left,TRUE,6978,Chrome,Windows,2026-02-22,m,5.286789869952088
3nV69a6p,34,verb,befreien,befreien,target,lower-right,TRUE,6354,Chrome,Windows,2026-02-22,m,5.286789869952088
3nV69a6p,35,noun,kajak,kajak,target,upper-left,TRUE,5675,Chrome,Windows,2026-02-22,m,5.286789869952088
3nV69a6p,36,verb,abseilen,abseilen,target,upper-left,TRUE,4624,Chrome,Windows,2026-02-22,m,5.286789869952088
3nV69a6p,37,verb,tuscheln,singen,dist3,upper-left,FALSE,7628,Chrome,Windows,2026-02-22,m,5.286789869952088
3nV69a6p,38,noun,hummer,hummer,target,upper-right,TRUE,6599,Chrome,Windows,2026-02-22,m,5.286789869952088
3nV69a6p,39,noun,nelke,nelke,target,upper-right,TRUE,6770,Chrome,Windows,2026-02-22,m,5.286789869952088
3nV69a6p,40,verb,betrachten,telefonieren,dist3,upper-left,FALSE,7699,Chrome,Windows,2026-02-22,m,5.286789869952088
3nV69a6p,41,noun,flunder,orca,dist1,lower-left,FALSE,9506,Chrome,Windows,2026-02-22,m,5.286789869952088
3nV69a6p,42,noun,cello,harfe,dist1,lower-right,FALSE,5453,Chrome,Windows,2026-02-22,m,5.286789869952088
3Qv9GCEJ,1,noun,auge,auge,target,upper-left,TRUE,7856,Safari,Mac OS X,2026-02-22,m,4.240930869267625
3Qv9GCEJ,2,verb,schweben,schweben,target,lower-left,TRUE,6268,Safari,Mac OS X,2026-02-22,m,4.240930869267625
3Qv9GCEJ,3,noun,moehre,moehre,target,lower-right,TRUE,5013,Safari,Mac OS X,2026-02-22,m,4.240930869267625
3Qv9GCEJ,4,noun,ameise,ameise,target,upper-right,TRUE,4671,Safari,Mac OS X,2026-02-22,m,4.240930869267625
3Qv9GCEJ,5,verb,jonglieren,werfen,dist1,lower-right,FALSE,11843,Safari,Mac OS X,2026-02-22,m,4.240930869267625
3Qv9GCEJ,6,noun,elch,elch,target,upper-left,TRUE,4595,Safari,Mac OS X,2026-02-22,m,4.240930869267625
3Qv9GCEJ,7,noun,chor,chor,target,upper-right,TRUE,7944,Safari,Mac OS X,2026-02-22,m,4.240930869267625
3Qv9GCEJ,8,verb,torkeln,backen,dist3,lower-right,FALSE,7549,Safari,Mac OS X,2026-02-22,m,4.240930869267625
3Qv9GCEJ,9,verb,studieren,marschieren,dist2,upper-left,FALSE,7508,Safari,Mac OS X,2026-02-22,m,4.240930869267625
3Qv9GCEJ,10,verb,operieren,operieren,target,lower-left,TRUE,7235,Safari,Mac OS X,2026-02-22,m,4.240930869267625
3Qv9GCEJ,11,noun,ventilator,ventilator,target,lower-left,TRUE,3794,Safari,Mac OS X,2026-02-22,m,4.240930869267625
3Qv9GCEJ,12,verb,waehlen,ueberlegen,dist1,upper-right,FALSE,4172,Safari,Mac OS X,2026-02-22,m,4.240930869267625
3Qv9GCEJ,13,noun,rucola,rosenkohl,dist1,lower-left,FALSE,9416,Safari,Mac OS X,2026-02-22,m,4.240930869267625
3Qv9GCEJ,14,verb,scheren,scheren,target,upper-right,TRUE,4856,Safari,Mac OS X,2026-02-22,m,4.240930869267625
3Qv9GCEJ,15,noun,giraffe,giraffe,target,upper-left,TRUE,2978,Safari,Mac OS X,2026-02-22,m,4.240930869267625
3Qv9GCEJ,16,noun,palme,palme,target,lower-left,TRUE,3396,Safari,Mac OS X,2026-02-22,m,4.240930869267625
3Qv9GCEJ,17,verb,tadeln,loben,dist1,lower-right,FALSE,5645,Safari,Mac OS X,2026-02-22,m,4.240930869267625
3Qv9GCEJ,18,noun,ananas,ananas,target,lower-right,TRUE,3677,Safari,Mac OS X,2026-02-22,m,4.240930869267625
3Qv9GCEJ,19,verb,empfangen,verschicken,dist1,lower-left,FALSE,4672,Safari,Mac OS X,2026-02-22,m,4.240930869267625
3Qv9GCEJ,20,verb,verloben,vergeben,dist2,lower-left,FALSE,6845,Safari,Mac OS X,2026-02-22,m,4.240930869267625
3Qv9GCEJ,21,noun,ozean,ozean,target,upper-left,TRUE,4483,Safari,Mac OS X,2026-02-22,m,4.240930869267625
3Qv9GCEJ,22,verb,faulenzen,faulenzen,target,upper-left,TRUE,4414,Safari,Mac OS X,2026-02-22,m,4.240930869267625
3Qv9GCEJ,23,noun,gazelle,reh,dist1,upper-right,FALSE,4547,Safari,Mac OS X,2026-02-22,m,4.240930869267625
3Qv9GCEJ,24,verb,liefern,liefern,target,lower-left,TRUE,9161,Safari,Mac OS X,2026-02-22,m,4.240930869267625
3Qv9GCEJ,25,noun,pfifferling,pfifferling,target,upper-left,TRUE,6718,Safari,Mac OS X,2026-02-22,m,4.240930869267625
3Qv9GCEJ,26,verb,dekorieren,dekorieren,target,upper-right,TRUE,5177,Safari,Mac OS X,2026-02-22,m,4.240930869267625
3Qv9GCEJ,27,verb,bekennen,verstecken,dist1,lower-right,FALSE,4523,Safari,Mac OS X,2026-02-22,m,4.240930869267625
3Qv9GCEJ,28,noun,ruine,ruine,target,lower-right,TRUE,4162,Safari,Mac OS X,2026-02-22,m,4.240930869267625
3Qv9GCEJ,29,noun,labyrinth,labyrinth,target,lower-left,TRUE,5626,Safari,Mac OS X,2026-02-22,m,4.240930869267625
3Qv9GCEJ,30,noun,orchidee,orchidee,target,lower-left,TRUE,11344,Safari,Mac OS X,2026-02-22,m,4.240930869267625
3Qv9GCEJ,31,verb,schwanken,drehen,dist1,lower-right,FALSE,3401,Safari,Mac OS X,2026-02-22,m,4.240930869267625
3Qv9GCEJ,32,noun,zucchini,zucchini,target,upper-right,TRUE,3337,Safari,Mac OS X,2026-02-22,m,4.240930869267625
3Qv9GCEJ,33,verb,tuermen,kruemmen,dist2,upper-right,FALSE,5056,Safari,Mac OS X,2026-02-22,m,4.240930869267625
3Qv9GCEJ,34,verb,befreien,befreien,target,lower-right,TRUE,5590,Safari,Mac OS X,2026-02-22,m,4.240930869267625
3Qv9GCEJ,35,noun,kajak,segelboot,dist1,lower-left,FALSE,2857,Safari,Mac OS X,2026-02-22,m,4.240930869267625
3Qv9GCEJ,36,verb,abseilen,abseilen,target,upper-left,TRUE,3043,Safari,Mac OS X,2026-02-22,m,4.240930869267625
3Qv9GCEJ,37,verb,tuscheln,verpetzen,dist1,lower-left,FALSE,3123,Safari,Mac OS X,2026-02-22,m,4.240930869267625
3Qv9GCEJ,38,noun,hummer,hummer,target,upper-right,TRUE,10124,Safari,Mac OS X,2026-02-22,m,4.240930869267625
3Qv9GCEJ,39,noun,nelke,nelke,target,upper-right,TRUE,4410,Safari,Mac OS X,2026-02-22,m,4.240930869267625
3Qv9GCEJ,40,verb,betrachten,betrachten,target,lower-left,TRUE,5103,Safari,Mac OS X,2026-02-22,m,4.240930869267625
3Qv9GCEJ,41,noun,flunder,holunder,dist2,upper-left,FALSE,7786,Safari,Mac OS X,2026-02-22,m,4.240930869267625
3Qv9GCEJ,42,noun,cello,steg,dist3,upper-left,FALSE,17953,Safari,Mac OS X,2026-02-22,m,4.240930869267625
3UouheWE,1,noun,auge,auge,target,upper-left,TRUE,12860,Chrome,Windows,2026-02-20,m,4.7501711156741955
3UouheWE,2,verb,schweben,schweben,target,lower-left,TRUE,17791,Chrome,Windows,2026-02-20,m,4.7501711156741955
3UouheWE,3,noun,moehre,moehre,target,lower-right,TRUE,3913,Chrome,Windows,2026-02-20,m,4.7501711156741955
3UouheWE,4,noun,ameise,ameise,target,upper-right,TRUE,5126,Chrome,Windows,2026-02-20,m,4.7501711156741955
3UouheWE,5,verb,jonglieren,jonglieren,target,upper-right,TRUE,4892,Chrome,Windows,2026-02-20,m,4.7501711156741955
3UouheWE,6,noun,elch,elch,target,upper-left,TRUE,3762,Chrome,Windows,2026-02-20,m,4.7501711156741955
3UouheWE,7,noun,chor,chor,target,upper-right,TRUE,4769,Chrome,Windows,2026-02-20,m,4.7501711156741955
3UouheWE,8,verb,torkeln,torkeln,target,upper-left,TRUE,5090,Chrome,Windows,2026-02-20,m,4.7501711156741955
3UouheWE,9,verb,studieren,marschieren,dist2,upper-left,FALSE,5322,Chrome,Windows,2026-02-20,m,4.7501711156741955
3UouheWE,10,verb,operieren,rufen,dist3,upper-left,FALSE,4773,Chrome,Windows,2026-02-20,m,4.7501711156741955
3UouheWE,11,noun,ventilator,ventilator,target,lower-left,TRUE,4565,Chrome,Windows,2026-02-20,m,4.7501711156741955
3UouheWE,12,verb,waehlen,waehlen,target,lower-right,TRUE,13070,Chrome,Windows,2026-02-20,m,4.7501711156741955
3UouheWE,13,noun,rucola,drakula,dist2,upper-left,FALSE,4630,Chrome,Windows,2026-02-20,m,4.7501711156741955
3UouheWE,14,verb,scheren,scheren,target,upper-right,TRUE,3738,Chrome,Windows,2026-02-20,m,4.7501711156741955
3UouheWE,15,noun,giraffe,giraffe,target,upper-left,TRUE,4003,Chrome,Windows,2026-02-20,m,4.7501711156741955
3UouheWE,16,noun,palme,kaktus,dist1,upper-right,FALSE,3831,Chrome,Windows,2026-02-20,m,4.7501711156741955
3UouheWE,17,verb,tadeln,radeln,dist2,lower-left,FALSE,3882,Chrome,Windows,2026-02-20,m,4.7501711156741955
3UouheWE,18,noun,ananas,schlips,dist3,upper-left,FALSE,3296,Chrome,Windows,2026-02-20,m,4.7501711156741955
3UouheWE,19,verb,empfangen,einfangen,dist2,upper-left,FALSE,3392,Chrome,Windows,2026-02-20,m,4.7501711156741955
3UouheWE,20,verb,verloben,verloben,target,upper-left,TRUE,2611,Chrome,Windows,2026-02-20,m,4.7501711156741955
3UouheWE,21,noun,ozean,fabrik,dist3,upper-right,FALSE,11355,Chrome,Windows,2026-02-20,m,4.7501711156741955
3UouheWE,22,verb,faulenzen,faulenzen,target,upper-left,TRUE,4155,Chrome,Windows,2026-02-20,m,4.7501711156741955
3UouheWE,23,noun,gazelle,gazelle,target,lower-right,TRUE,4665,Chrome,Windows,2026-02-20,m,4.7501711156741955
3UouheWE,24,verb,liefern,liefern,target,lower-left,TRUE,3526,Chrome,Windows,2026-02-20,m,4.7501711156741955
3UouheWE,25,noun,pfifferling,diamant,dist3,upper-right,FALSE,5751,Chrome,Windows,2026-02-20,m,4.7501711156741955
3UouheWE,26,verb,dekorieren,dekorieren,target,upper-right,TRUE,20077,Chrome,Windows,2026-02-20,m,4.7501711156741955
3UouheWE,27,verb,bekennen,verstecken,dist1,lower-right,FALSE,3203,Chrome,Windows,2026-02-20,m,4.7501711156741955
3UouheWE,28,noun,ruine,festung,dist1,upper-right,FALSE,4450,Chrome,Windows,2026-02-20,m,4.7501711156741955
3UouheWE,29,noun,labyrinth,labyrinth,target,lower-left,TRUE,3637,Chrome,Windows,2026-02-20,m,4.7501711156741955
3UouheWE,30,noun,orchidee,zeh,dist2,upper-right,FALSE,3055,Chrome,Windows,2026-02-20,m,4.7501711156741955
3UouheWE,31,verb,schwanken,schenken,dist2,lower-left,FALSE,3679,Chrome,Windows,2026-02-20,m,4.7501711156741955
3UouheWE,32,noun,zucchini,brokkoli,dist1,lower-right,FALSE,3304,Chrome,Windows,2026-02-20,m,4.7501711156741955
3UouheWE,33,verb,tuermen,tuermen,target,upper-left,TRUE,7110,Chrome,Windows,2026-02-20,m,4.7501711156741955
3UouheWE,34,verb,befreien,befreien,target,lower-right,TRUE,2445,Chrome,Windows,2026-02-20,m,4.7501711156741955
3UouheWE,35,noun,kajak,bumerang,dist3,lower-right,FALSE,3309,Chrome,Windows,2026-02-20,m,4.7501711156741955
3UouheWE,36,verb,abseilen,herunterklettern,dist1,lower-left,FALSE,4271,Chrome,Windows,2026-02-20,m,4.7501711156741955
3UouheWE,37,verb,tuscheln,verpetzen,dist1,lower-left,FALSE,5251,Chrome,Windows,2026-02-20,m,4.7501711156741955
3UouheWE,38,noun,hummer,krebs,dist1,lower-right,FALSE,2719,Chrome,Windows,2026-02-20,m,4.7501711156741955
3UouheWE,39,noun,nelke,kompass,dist3,upper-left,FALSE,3433,Chrome,Windows,2026-02-20,m,4.7501711156741955
3UouheWE,40,verb,betrachten,bewachen,dist2,upper-right,FALSE,6304,Chrome,Windows,2026-02-20,m,4.7501711156741955
3UouheWE,41,noun,flunder,pyramide,dist3,upper-right,FALSE,2915,Chrome,Windows,2026-02-20,m,4.7501711156741955
3UouheWE,42,noun,cello,cello,target,lower-left,TRUE,2445,Chrome,Windows,2026-02-20,m,4.7501711156741955
43xd9zYu,1,noun,auge,auge,target,upper-left,TRUE,5253,Safari,Mac OS X,2026-02-22,w,4.774811772758385
43xd9zYu,2,verb,schweben,schweben,target,lower-left,TRUE,4052,Safari,Mac OS X,2026-02-22,w,4.774811772758385
43xd9zYu,3,noun,moehre,moehre,target,lower-right,TRUE,3261,Safari,Mac OS X,2026-02-22,w,4.774811772758385
43xd9zYu,4,noun,ameise,ameise,target,upper-right,TRUE,4606,Safari,Mac OS X,2026-02-22,w,4.774811772758385
43xd9zYu,5,verb,jonglieren,jonglieren,target,upper-right,TRUE,4642,Safari,Mac OS X,2026-02-22,w,4.774811772758385
43xd9zYu,6,noun,elch,elch,target,upper-left,TRUE,4150,Safari,Mac OS X,2026-02-22,w,4.774811772758385
43xd9zYu,7,noun,chor,chor,target,upper-right,TRUE,3379,Safari,Mac OS X,2026-02-22,w,4.774811772758385
43xd9zYu,8,verb,torkeln,huepfen,dist1,lower-left,FALSE,7916,Safari,Mac OS X,2026-02-22,w,4.774811772758385
43xd9zYu,9,verb,studieren,marschieren,dist2,upper-left,FALSE,6652,Safari,Mac OS X,2026-02-22,w,4.774811772758385
43xd9zYu,10,verb,operieren,impfen,dist1,upper-right,FALSE,11802,Safari,Mac OS X,2026-02-22,w,4.774811772758385
43xd9zYu,11,noun,ventilator,ventilator,target,lower-left,TRUE,3739,Safari,Mac OS X,2026-02-22,w,4.774811772758385
43xd9zYu,12,verb,waehlen,bauen,dist3,upper-left,FALSE,8772,Safari,Mac OS X,2026-02-22,w,4.774811772758385
43xd9zYu,13,noun,rucola,rucola,target,lower-right,TRUE,5637,Safari,Mac OS X,2026-02-22,w,4.774811772758385
43xd9zYu,14,verb,scheren,scheren,target,upper-right,TRUE,5373,Safari,Mac OS X,2026-02-22,w,4.774811772758385
43xd9zYu,15,noun,giraffe,giraffe,target,upper-left,TRUE,3636,Safari,Mac OS X,2026-02-22,w,4.774811772758385
43xd9zYu,16,noun,palme,palme,target,lower-left,TRUE,4306,Safari,Mac OS X,2026-02-22,w,4.774811772758385
43xd9zYu,17,verb,tadeln,tadeln,target,upper-right,TRUE,10990,Safari,Mac OS X,2026-02-22,w,4.774811772758385
43xd9zYu,18,noun,ananas,ananas,target,lower-right,TRUE,4355,Safari,Mac OS X,2026-02-22,w,4.774811772758385
43xd9zYu,19,verb,empfangen,empfangen,target,lower-right,TRUE,8840,Safari,Mac OS X,2026-02-22,w,4.774811772758385
43xd9zYu,20,verb,verloben,heiraten,dist1,lower-right,FALSE,4767,Safari,Mac OS X,2026-02-22,w,4.774811772758385
43xd9zYu,21,noun,ozean,ozean,target,upper-left,TRUE,5852,Safari,Mac OS X,2026-02-22,w,4.774811772758385
43xd9zYu,22,verb,faulenzen,begrenzen,dist1,lower-right,FALSE,12005,Safari,Mac OS X,2026-02-22,w,4.774811772758385
43xd9zYu,23,noun,gazelle,gazelle,target,lower-right,TRUE,6353,Safari,Mac OS X,2026-02-22,w,4.774811772758385
43xd9zYu,24,verb,liefern,liefern,target,lower-left,TRUE,8303,Safari,Mac OS X,2026-02-22,w,4.774811772758385
43xd9zYu,25,noun,pfifferling,pfifferling,target,upper-left,TRUE,10674,Safari,Mac OS X,2026-02-22,w,4.774811772758385
43xd9zYu,26,verb,dekorieren,dekorieren,target,upper-right,TRUE,4817,Safari,Mac OS X,2026-02-22,w,4.774811772758385
43xd9zYu,27,verb,bekennen,verstecken,dist1,lower-right,FALSE,6823,Safari,Mac OS X,2026-02-22,w,4.774811772758385
43xd9zYu,28,noun,ruine,ruine,target,lower-right,TRUE,15317,Safari,Mac OS X,2026-02-22,w,4.774811772758385
43xd9zYu,29,noun,labyrinth,labyrinth,target,lower-left,TRUE,3452,Safari,Mac OS X,2026-02-22,w,4.774811772758385
43xd9zYu,30,noun,orchidee,strauch,dist1,upper-left,FALSE,7370,Safari,Mac OS X,2026-02-22,w,4.774811772758385
43xd9zYu,31,verb,schwanken,schwanken,target,upper-right,TRUE,7521,Safari,Mac OS X,2026-02-22,w,4.774811772758385
43xd9zYu,32,noun,zucchini,zucchini,target,upper-right,TRUE,7168,Safari,Mac OS X,2026-02-22,w,4.774811772758385
43xd9zYu,33,verb,tuermen,tuermen,target,upper-left,TRUE,13438,Safari,Mac OS X,2026-02-22,w,4.774811772758385
43xd9zYu,34,verb,befreien,befreien,target,lower-right,TRUE,3403,Safari,Mac OS X,2026-02-22,w,4.774811772758385
43xd9zYu,35,noun,kajak,bumerang,dist3,lower-right,FALSE,4036,Safari,Mac OS X,2026-02-22,w,4.774811772758385
43xd9zYu,36,verb,abseilen,abseilen,target,upper-left,TRUE,4955,Safari,Mac OS X,2026-02-22,w,4.774811772758385
43xd9zYu,37,verb,tuscheln,tuschen,dist2,upper-right,FALSE,6185,Safari,Mac OS X,2026-02-22,w,4.774811772758385
43xd9zYu,38,noun,hummer,hummer,target,upper-right,TRUE,6073,Safari,Mac OS X,2026-02-22,w,4.774811772758385
43xd9zYu,39,noun,nelke,veilchen,dist1,lower-right,FALSE,5100,Safari,Mac OS X,2026-02-22,w,4.774811772758385
43xd9zYu,40,verb,betrachten,zeigen,dist1,lower-right,FALSE,4767,Safari,Mac OS X,2026-02-22,w,4.774811772758385
43xd9zYu,41,noun,flunder,flunder,target,lower-right,TRUE,5469,Safari,Mac OS X,2026-02-22,w,4.774811772758385
43xd9zYu,42,noun,cello,cello,target,lower-left,TRUE,25121,Safari,Mac OS X,2026-02-22,w,4.774811772758385
4drDuGP7,1,noun,auge,auge,target,upper-left,TRUE,3784,Chrome,Android,2026-02-20,m,5.23750855578371
4drDuGP7,2,verb,schweben,schweben,target,lower-left,TRUE,4091,Chrome,Android,2026-02-20,m,5.23750855578371
4drDuGP7,3,noun,moehre,moehre,target,lower-right,TRUE,2995,Chrome,Android,2026-02-20,m,5.23750855578371
4drDuGP7,4,noun,ameise,ameise,target,upper-right,TRUE,2685,Chrome,Android,2026-02-20,m,5.23750855578371
4drDuGP7,5,verb,jonglieren,jonglieren,target,upper-right,TRUE,5220,Chrome,Android,2026-02-20,m,5.23750855578371
4drDuGP7,6,noun,elch,elch,target,upper-left,TRUE,2916,Chrome,Android,2026-02-20,m,5.23750855578371
4drDuGP7,7,noun,chor,chor,target,upper-right,TRUE,6251,Chrome,Android,2026-02-20,m,5.23750855578371
4drDuGP7,8,verb,torkeln,torkeln,target,upper-left,TRUE,6042,Chrome,Android,2026-02-20,m,5.23750855578371
4drDuGP7,9,verb,studieren,unterrichten,dist1,upper-right,FALSE,4306,Chrome,Android,2026-02-20,m,5.23750855578371
4drDuGP7,10,verb,operieren,impfen,dist1,upper-right,FALSE,4192,Chrome,Android,2026-02-20,m,5.23750855578371
4drDuGP7,11,noun,ventilator,ventilator,target,lower-left,TRUE,3966,Chrome,Android,2026-02-20,m,5.23750855578371
4drDuGP7,12,verb,waehlen,ueberlegen,dist1,upper-right,FALSE,14050,Chrome,Android,2026-02-20,m,5.23750855578371
4drDuGP7,13,noun,rucola,rosenkohl,dist1,lower-left,FALSE,3737,Chrome,Android,2026-02-20,m,5.23750855578371
4drDuGP7,14,verb,scheren,scheren,target,upper-right,TRUE,9736,Chrome,Android,2026-02-20,m,5.23750855578371
4drDuGP7,15,noun,giraffe,giraffe,target,upper-left,TRUE,2503,Chrome,Android,2026-02-20,m,5.23750855578371
4drDuGP7,16,noun,palme,palme,target,lower-left,TRUE,2832,Chrome,Android,2026-02-20,m,5.23750855578371
4drDuGP7,17,verb,tadeln,radeln,dist2,lower-left,FALSE,4126,Chrome,Android,2026-02-20,m,5.23750855578371
4drDuGP7,18,noun,ananas,ananas,target,lower-right,TRUE,2960,Chrome,Android,2026-02-20,m,5.23750855578371
4drDuGP7,19,verb,empfangen,einfangen,dist2,upper-left,FALSE,5159,Chrome,Android,2026-02-20,m,5.23750855578371
4drDuGP7,20,verb,verloben,verloben,target,upper-left,TRUE,5106,Chrome,Android,2026-02-20,m,5.23750855578371
4drDuGP7,21,noun,ozean,fluss,dist1,lower-left,FALSE,4753,Chrome,Android,2026-02-20,m,5.23750855578371
4drDuGP7,22,verb,faulenzen,faulenzen,target,upper-left,TRUE,7246,Chrome,Android,2026-02-20,m,5.23750855578371
4drDuGP7,23,noun,gazelle,gazelle,target,lower-right,TRUE,4123,Chrome,Android,2026-02-20,m,5.23750855578371
4drDuGP7,24,verb,liefern,liefern,target,lower-left,TRUE,5956,Chrome,Android,2026-02-20,m,5.23750855578371
4drDuGP7,25,noun,pfifferling,pfifferling,target,upper-left,TRUE,5825,Chrome,Android,2026-02-20,m,5.23750855578371
4drDuGP7,26,verb,dekorieren,dekorieren,target,upper-right,TRUE,5158,Chrome,Android,2026-02-20,m,5.23750855578371
4drDuGP7,27,verb,bekennen,ziehen,dist3,lower-left,FALSE,6439,Chrome,Android,2026-02-20,m,5.23750855578371
4drDuGP7,28,noun,ruine,ruine,target,lower-right,TRUE,3607,Chrome,Android,2026-02-20,m,5.23750855578371
4drDuGP7,29,noun,labyrinth,labyrinth,target,lower-left,TRUE,3303,Chrome,Android,2026-02-20,m,5.23750855578371
4drDuGP7,30,noun,orchidee,zeh,dist2,upper-right,FALSE,5458,Chrome,Android,2026-02-20,m,5.23750855578371
4drDuGP7,31,verb,schwanken,schwanken,target,upper-right,TRUE,3397,Chrome,Android,2026-02-20,m,5.23750855578371
4drDuGP7,32,noun,zucchini,zucchini,target,upper-right,TRUE,4891,Chrome,Android,2026-02-20,m,5.23750855578371
4drDuGP7,33,verb,tuermen,tuermen,target,upper-left,TRUE,5141,Chrome,Android,2026-02-20,m,5.23750855578371
4drDuGP7,34,verb,befreien,befreien,target,lower-right,TRUE,3812,Chrome,Android,2026-02-20,m,5.23750855578371
4drDuGP7,35,noun,kajak,rucksack,dist2,upper-right,FALSE,6752,Chrome,Android,2026-02-20,m,5.23750855578371
4drDuGP7,36,verb,abseilen,abseilen,target,upper-left,TRUE,3152,Chrome,Android,2026-02-20,m,5.23750855578371
4drDuGP7,37,verb,tuscheln,tuscheln,target,lower-right,TRUE,7882,Chrome,Android,2026-02-20,m,5.23750855578371
4drDuGP7,38,noun,hummer,klammer,dist2,lower-left,FALSE,10333,Chrome,Android,2026-02-20,m,5.23750855578371
4drDuGP7,39,noun,nelke,veilchen,dist1,lower-right,FALSE,9154,Chrome,Android,2026-02-20,m,5.23750855578371
4drDuGP7,40,verb,betrachten,zeigen,dist1,lower-right,FALSE,6544,Chrome,Android,2026-02-20,m,5.23750855578371
4drDuGP7,41,noun,flunder,orca,dist1,lower-left,FALSE,7782,Chrome,Android,2026-02-20,m,5.23750855578371
4drDuGP7,42,noun,cello,cello,target,lower-left,TRUE,3556,Chrome,Android,2026-02-20,m,5.23750855578371
4rHnw6WA,1,noun,auge,auge,target,upper-left,TRUE,11352,Firefox,Windows,2026-02-21,w,5.037645448323066
4rHnw6WA,2,verb,schweben,schweben,target,lower-left,TRUE,7520,Firefox,Windows,2026-02-21,w,5.037645448323066
4rHnw6WA,3,noun,moehre,moehre,target,lower-right,TRUE,6074,Firefox,Windows,2026-02-21,w,5.037645448323066
4rHnw6WA,4,noun,ameise,ameise,target,upper-right,TRUE,7752,Firefox,Windows,2026-02-21,w,5.037645448323066
4rHnw6WA,5,verb,jonglieren,jonglieren,target,upper-right,TRUE,6195,Firefox,Windows,2026-02-21,w,5.037645448323066
4rHnw6WA,6,noun,elch,elch,target,upper-left,TRUE,6163,Firefox,Windows,2026-02-21,w,5.037645448323066
4rHnw6WA,7,noun,chor,chor,target,upper-right,TRUE,15239,Firefox,Windows,2026-02-21,w,5.037645448323066
4rHnw6WA,8,verb,torkeln,backen,dist3,lower-right,FALSE,9497,Firefox,Windows,2026-02-21,w,5.037645448323066
4rHnw6WA,9,verb,studieren,unterrichten,dist1,upper-right,FALSE,8031,Firefox,Windows,2026-02-21,w,5.037645448323066
4rHnw6WA,10,verb,operieren,operieren,target,lower-left,TRUE,7805,Firefox,Windows,2026-02-21,w,5.037645448323066
4rHnw6WA,11,noun,ventilator,ventilator,target,lower-left,TRUE,4264,Firefox,Windows,2026-02-21,w,5.037645448323066
4rHnw6WA,12,verb,waehlen,bauen,dist3,upper-left,FALSE,10938,Firefox,Windows,2026-02-21,w,5.037645448323066
4rHnw6WA,13,noun,rucola,drakula,dist2,upper-left,FALSE,9136,Firefox,Windows,2026-02-21,w,5.037645448323066
4rHnw6WA,14,verb,scheren,scheren,target,upper-right,TRUE,8382,Firefox,Windows,2026-02-21,w,5.037645448323066
4rHnw6WA,15,noun,giraffe,giraffe,target,upper-left,TRUE,7189,Firefox,Windows,2026-02-21,w,5.037645448323066
4rHnw6WA,16,noun,palme,palme,target,lower-left,TRUE,7053,Firefox,Windows,2026-02-21,w,5.037645448323066
4rHnw6WA,17,verb,tadeln,radeln,dist2,lower-left,FALSE,15670,Firefox,Windows,2026-02-21,w,5.037645448323066
4rHnw6WA,18,noun,ananas,ananas,target,lower-right,TRUE,7656,Firefox,Windows,2026-02-21,w,5.037645448323066
4rHnw6WA,19,verb,empfangen,einfangen,dist2,upper-left,FALSE,8320,Firefox,Windows,2026-02-21,w,5.037645448323066
4rHnw6WA,20,verb,verloben,vergeben,dist2,lower-left,FALSE,8567,Firefox,Windows,2026-02-21,w,5.037645448323066
4rHnw6WA,21,noun,ozean,fabrik,dist3,upper-right,FALSE,17715,Firefox,Windows,2026-02-21,w,5.037645448323066
4rHnw6WA,22,verb,faulenzen,spazieren,dist2,lower-left,FALSE,17229,Firefox,Windows,2026-02-21,w,5.037645448323066
4rHnw6WA,23,noun,gazelle,astronaut,dist3,lower-left,FALSE,7994,Firefox,Windows,2026-02-21,w,5.037645448323066
4rHnw6WA,24,verb,liefern,liefern,target,lower-left,TRUE,5897,Firefox,Windows,2026-02-21,w,5.037645448323066
4rHnw6WA,25,noun,pfifferling,kastanie,dist1,lower-right,FALSE,18816,Firefox,Windows,2026-02-21,w,5.037645448323066
4rHnw6WA,26,verb,dekorieren,dekorieren,target,upper-right,TRUE,8870,Firefox,Windows,2026-02-21,w,5.037645448323066
4rHnw6WA,27,verb,bekennen,verbrennen,dist2,upper-right,FALSE,17031,Firefox,Windows,2026-02-21,w,5.037645448323066
4rHnw6WA,28,noun,ruine,torwart,dist3,upper-left,FALSE,15794,Firefox,Windows,2026-02-21,w,5.037645448323066
4rHnw6WA,29,noun,labyrinth,labyrinth,target,lower-left,TRUE,14873,Firefox,Windows,2026-02-21,w,5.037645448323066
4rHnw6WA,30,noun,orchidee,strauch,dist1,upper-left,FALSE,25027,Firefox,Windows,2026-02-21,w,5.037645448323066
4rHnw6WA,31,verb,schwanken,schenken,dist2,lower-left,FALSE,10597,Firefox,Windows,2026-02-21,w,5.037645448323066
4rHnw6WA,32,noun,zucchini,skateboard,dist3,lower-left,FALSE,45080,Firefox,Windows,2026-02-21,w,5.037645448323066
4rHnw6WA,33,verb,tuermen,sammeln,dist1,lower-left,FALSE,8849,Firefox,Windows,2026-02-21,w,5.037645448323066
4rHnw6WA,34,verb,befreien,schreien,dist2,upper-left,FALSE,9908,Firefox,Windows,2026-02-21,w,5.037645448323066
4rHnw6WA,35,noun,kajak,bumerang,dist3,lower-right,FALSE,27676,Firefox,Windows,2026-02-21,w,5.037645448323066
4rHnw6WA,36,verb,abseilen,abseilen,target,upper-left,TRUE,29329,Firefox,Windows,2026-02-21,w,5.037645448323066
4rHnw6WA,37,verb,tuscheln,tuscheln,target,lower-right,TRUE,10619,Firefox,Windows,2026-02-21,w,5.037645448323066
4rHnw6WA,38,noun,hummer,hummer,target,upper-right,TRUE,5267,Firefox,Windows,2026-02-21,w,5.037645448323066
4rHnw6WA,39,noun,nelke,veilchen,dist1,lower-right,FALSE,8147,Firefox,Windows,2026-02-21,w,5.037645448323066
4rHnw6WA,40,verb,betrachten,bewachen,dist2,upper-right,FALSE,11346,Firefox,Windows,2026-02-21,w,5.037645448323066
4rHnw6WA,41,noun,flunder,flunder,target,lower-right,TRUE,6923,Firefox,Windows,2026-02-21,w,5.037645448323066
4rHnw6WA,42,noun,cello,cello,target,lower-left,TRUE,4249,Firefox,Windows,2026-02-21,w,5.037645448323066
5ae6CvUs,1,noun,auge,auge,target,upper-left,TRUE,15232,Safari,Mac OS X,2026-02-22,w,7.028062970568104
5ae6CvUs,2,verb,schweben,schweben,target,lower-left,TRUE,5075,Safari,Mac OS X,2026-02-22,w,7.028062970568104
5ae6CvUs,3,noun,moehre,moehre,target,lower-right,TRUE,2520,Safari,Mac OS X,2026-02-22,w,7.028062970568104
5ae6CvUs,4,noun,ameise,ameise,target,upper-right,TRUE,2409,Safari,Mac OS X,2026-02-22,w,7.028062970568104
5ae6CvUs,5,verb,jonglieren,jonglieren,target,upper-right,TRUE,2839,Safari,Mac OS X,2026-02-22,w,7.028062970568104
5ae6CvUs,6,noun,elch,elch,target,upper-left,TRUE,3082,Safari,Mac OS X,2026-02-22,w,7.028062970568104
5ae6CvUs,7,noun,chor,chor,target,upper-right,TRUE,2481,Safari,Mac OS X,2026-02-22,w,7.028062970568104
5ae6CvUs,8,verb,torkeln,torkeln,target,upper-left,TRUE,6480,Safari,Mac OS X,2026-02-22,w,7.028062970568104
5ae6CvUs,9,verb,studieren,studieren,target,lower-right,TRUE,6894,Safari,Mac OS X,2026-02-22,w,7.028062970568104
5ae6CvUs,10,verb,operieren,operieren,target,lower-left,TRUE,14324,Safari,Mac OS X,2026-02-22,w,7.028062970568104
5ae6CvUs,11,noun,ventilator,ventilator,target,lower-left,TRUE,5309,Safari,Mac OS X,2026-02-22,w,7.028062970568104
5ae6CvUs,12,verb,waehlen,waehlen,target,lower-right,TRUE,8353,Safari,Mac OS X,2026-02-22,w,7.028062970568104
5ae6CvUs,13,noun,rucola,rosenkohl,dist1,lower-left,FALSE,5644,Safari,Mac OS X,2026-02-22,w,7.028062970568104
5ae6CvUs,14,verb,scheren,scheren,target,upper-right,TRUE,5320,Safari,Mac OS X,2026-02-22,w,7.028062970568104
5ae6CvUs,15,noun,giraffe,giraffe,target,upper-left,TRUE,2310,Safari,Mac OS X,2026-02-22,w,7.028062970568104
5ae6CvUs,16,noun,palme,palme,target,lower-left,TRUE,4070,Safari,Mac OS X,2026-02-22,w,7.028062970568104
5ae6CvUs,17,verb,tadeln,radeln,dist2,lower-left,FALSE,35781,Safari,Mac OS X,2026-02-22,w,7.028062970568104
5ae6CvUs,18,noun,ananas,ananas,target,lower-right,TRUE,2886,Safari,Mac OS X,2026-02-22,w,7.028062970568104
5ae6CvUs,19,verb,empfangen,empfangen,target,lower-right,TRUE,3321,Safari,Mac OS X,2026-02-22,w,7.028062970568104
5ae6CvUs,20,verb,verloben,heiraten,dist1,lower-right,FALSE,7209,Safari,Mac OS X,2026-02-22,w,7.028062970568104
5ae6CvUs,21,noun,ozean,ozean,target,upper-left,TRUE,3033,Safari,Mac OS X,2026-02-22,w,7.028062970568104
5ae6CvUs,22,verb,faulenzen,faulenzen,target,upper-left,TRUE,3092,Safari,Mac OS X,2026-02-22,w,7.028062970568104
5ae6CvUs,23,noun,gazelle,gazelle,target,lower-right,TRUE,3989,Safari,Mac OS X,2026-02-22,w,7.028062970568104
5ae6CvUs,24,verb,liefern,liefern,target,lower-left,TRUE,12072,Safari,Mac OS X,2026-02-22,w,7.028062970568104
5ae6CvUs,25,noun,pfifferling,pfifferling,target,upper-left,TRUE,6648,Safari,Mac OS X,2026-02-22,w,7.028062970568104
5ae6CvUs,26,verb,dekorieren,dekorieren,target,upper-right,TRUE,3272,Safari,Mac OS X,2026-02-22,w,7.028062970568104
5ae6CvUs,27,verb,bekennen,ziehen,dist3,lower-left,FALSE,24792,Safari,Mac OS X,2026-02-22,w,7.028062970568104
5ae6CvUs,28,noun,ruine,ruine,target,lower-right,TRUE,7760,Safari,Mac OS X,2026-02-22,w,7.028062970568104
5ae6CvUs,29,noun,labyrinth,labyrinth,target,lower-left,TRUE,3869,Safari,Mac OS X,2026-02-22,w,7.028062970568104
5ae6CvUs,30,noun,orchidee,orchidee,target,lower-left,TRUE,5790,Safari,Mac OS X,2026-02-22,w,7.028062970568104
5ae6CvUs,31,verb,schwanken,schwanken,target,upper-right,TRUE,26975,Safari,Mac OS X,2026-02-22,w,7.028062970568104
5ae6CvUs,32,noun,zucchini,zucchini,target,upper-right,TRUE,4229,Safari,Mac OS X,2026-02-22,w,7.028062970568104
5ae6CvUs,33,verb,tuermen,tuermen,target,upper-left,TRUE,39989,Safari,Mac OS X,2026-02-22,w,7.028062970568104
5ae6CvUs,34,verb,befreien,befreien,target,lower-right,TRUE,4798,Safari,Mac OS X,2026-02-22,w,7.028062970568104
5ae6CvUs,35,noun,kajak,kajak,target,upper-left,TRUE,26808,Safari,Mac OS X,2026-02-22,w,7.028062970568104
5ae6CvUs,36,verb,abseilen,abseilen,target,upper-left,TRUE,3217,Safari,Mac OS X,2026-02-22,w,7.028062970568104
5ae6CvUs,37,verb,tuscheln,tuscheln,target,lower-right,TRUE,3689,Safari,Mac OS X,2026-02-22,w,7.028062970568104
5ae6CvUs,38,noun,hummer,hummer,target,upper-right,TRUE,5116,Safari,Mac OS X,2026-02-22,w,7.028062970568104
5ae6CvUs,39,noun,nelke,veilchen,dist1,lower-right,FALSE,23355,Safari,Mac OS X,2026-02-22,w,7.028062970568104
5ae6CvUs,40,verb,betrachten,zeigen,dist1,lower-right,FALSE,24601,Safari,Mac OS X,2026-02-22,w,7.028062970568104
5ae6CvUs,41,noun,flunder,flunder,target,lower-right,TRUE,5225,Safari,Mac OS X,2026-02-22,w,7.028062970568104
5ae6CvUs,42,noun,cello,cello,target,lower-left,TRUE,3192,Safari,Mac OS X,2026-02-22,w,7.028062970568104
6eDHMvwV,1,noun,auge,auge,target,upper-left,TRUE,2924,Safari,Mac OS X,2026-02-21,w,5.437371663244353
6eDHMvwV,2,verb,schweben,schweben,target,lower-left,TRUE,4424,Safari,Mac OS X,2026-02-21,w,5.437371663244353
6eDHMvwV,3,noun,moehre,moehre,target,lower-right,TRUE,2519,Safari,Mac OS X,2026-02-21,w,5.437371663244353
6eDHMvwV,4,noun,ameise,ameise,target,upper-right,TRUE,2130,Safari,Mac OS X,2026-02-21,w,5.437371663244353
6eDHMvwV,5,verb,jonglieren,jonglieren,target,upper-right,TRUE,2285,Safari,Mac OS X,2026-02-21,w,5.437371663244353
6eDHMvwV,6,noun,elch,elch,target,upper-left,TRUE,2647,Safari,Mac OS X,2026-02-21,w,5.437371663244353
6eDHMvwV,7,noun,chor,orchester,dist1,lower-right,FALSE,9062,Safari,Mac OS X,2026-02-21,w,5.437371663244353
6eDHMvwV,8,verb,torkeln,schnorcheln,dist2,upper-right,FALSE,3595,Safari,Mac OS X,2026-02-21,w,5.437371663244353
6eDHMvwV,9,verb,studieren,studieren,target,lower-right,TRUE,16664,Safari,Mac OS X,2026-02-21,w,5.437371663244353
6eDHMvwV,10,verb,operieren,impfen,dist1,upper-right,FALSE,8005,Safari,Mac OS X,2026-02-21,w,5.437371663244353
6eDHMvwV,11,noun,ventilator,ventilator,target,lower-left,TRUE,3715,Safari,Mac OS X,2026-02-21,w,5.437371663244353
6eDHMvwV,12,verb,waehlen,waehlen,target,lower-right,TRUE,13930,Safari,Mac OS X,2026-02-21,w,5.437371663244353
6eDHMvwV,13,noun,rucola,rosenkohl,dist1,lower-left,FALSE,11772,Safari,Mac OS X,2026-02-21,w,5.437371663244353
6eDHMvwV,14,verb,scheren,scheren,target,upper-right,TRUE,9421,Safari,Mac OS X,2026-02-21,w,5.437371663244353
6eDHMvwV,15,noun,giraffe,giraffe,target,upper-left,TRUE,2138,Safari,Mac OS X,2026-02-21,w,5.437371663244353
6eDHMvwV,16,noun,palme,palme,target,lower-left,TRUE,4568,Safari,Mac OS X,2026-02-21,w,5.437371663244353
6eDHMvwV,17,verb,tadeln,radeln,dist2,lower-left,FALSE,18971,Safari,Mac OS X,2026-02-21,w,5.437371663244353
6eDHMvwV,18,noun,ananas,ananas,target,lower-right,TRUE,2379,Safari,Mac OS X,2026-02-21,w,5.437371663244353
6eDHMvwV,19,verb,empfangen,empfangen,target,lower-right,TRUE,3040,Safari,Mac OS X,2026-02-21,w,5.437371663244353
6eDHMvwV,20,verb,verloben,heiraten,dist1,lower-right,FALSE,4135,Safari,Mac OS X,2026-02-21,w,5.437371663244353
6eDHMvwV,21,noun,ozean,ozean,target,upper-left,TRUE,4918,Safari,Mac OS X,2026-02-21,w,5.437371663244353
6eDHMvwV,22,verb,faulenzen,faulenzen,target,upper-left,TRUE,7222,Safari,Mac OS X,2026-02-21,w,5.437371663244353
6eDHMvwV,23,noun,gazelle,gazelle,target,lower-right,TRUE,2663,Safari,Mac OS X,2026-02-21,w,5.437371663244353
6eDHMvwV,24,verb,liefern,liefern,target,lower-left,TRUE,5437,Safari,Mac OS X,2026-02-21,w,5.437371663244353
6eDHMvwV,25,noun,pfifferling,pfifferling,target,upper-left,TRUE,9435,Safari,Mac OS X,2026-02-21,w,5.437371663244353
6eDHMvwV,26,verb,dekorieren,dekorieren,target,upper-right,TRUE,6702,Safari,Mac OS X,2026-02-21,w,5.437371663244353
6eDHMvwV,27,verb,bekennen,verbrennen,dist2,upper-right,FALSE,23451,Safari,Mac OS X,2026-02-21,w,5.437371663244353
6eDHMvwV,28,noun,ruine,ruine,target,lower-right,TRUE,4821,Safari,Mac OS X,2026-02-21,w,5.437371663244353
6eDHMvwV,29,noun,labyrinth,labyrinth,target,lower-left,TRUE,2920,Safari,Mac OS X,2026-02-21,w,5.437371663244353
6eDHMvwV,30,noun,orchidee,orchidee,target,lower-left,TRUE,5674,Safari,Mac OS X,2026-02-21,w,5.437371663244353
6eDHMvwV,31,verb,schwanken,schwanken,target,upper-right,TRUE,4279,Safari,Mac OS X,2026-02-21,w,5.437371663244353
6eDHMvwV,32,noun,zucchini,zucchini,target,upper-right,TRUE,6548,Safari,Mac OS X,2026-02-21,w,5.437371663244353
6eDHMvwV,33,verb,tuermen,tuermen,target,upper-left,TRUE,6944,Safari,Mac OS X,2026-02-21,w,5.437371663244353
6eDHMvwV,34,verb,befreien,befreien,target,lower-right,TRUE,6090,Safari,Mac OS X,2026-02-21,w,5.437371663244353
6eDHMvwV,35,noun,kajak,bumerang,dist3,lower-right,FALSE,5379,Safari,Mac OS X,2026-02-21,w,5.437371663244353
6eDHMvwV,36,verb,abseilen,abseilen,target,upper-left,TRUE,4029,Safari,Mac OS X,2026-02-21,w,5.437371663244353
6eDHMvwV,37,verb,tuscheln,tuscheln,target,lower-right,TRUE,5416,Safari,Mac OS X,2026-02-21,w,5.437371663244353
6eDHMvwV,38,noun,hummer,krebs,dist1,lower-right,FALSE,2907,Safari,Mac OS X,2026-02-21,w,5.437371663244353
6eDHMvwV,39,noun,nelke,nelke,target,upper-right,TRUE,7219,Safari,Mac OS X,2026-02-21,w,5.437371663244353
6eDHMvwV,40,verb,betrachten,zeigen,dist1,lower-right,FALSE,8639,Safari,Mac OS X,2026-02-21,w,5.437371663244353
6eDHMvwV,41,noun,flunder,flunder,target,lower-right,TRUE,3032,Safari,Mac OS X,2026-02-21,w,5.437371663244353
6eDHMvwV,42,noun,cello,harfe,dist1,lower-right,FALSE,2668,Safari,Mac OS X,2026-02-21,w,5.437371663244353
6fh6GocG,1,noun,auge,auge,target,upper-left,TRUE,21272,Chrome,Mac OS X,2026-02-21,m,4.728268309377139
6fh6GocG,2,verb,schweben,schweben,target,lower-left,TRUE,16677,Chrome,Mac OS X,2026-02-21,m,4.728268309377139
6fh6GocG,3,noun,moehre,moehre,target,lower-right,TRUE,5563,Chrome,Mac OS X,2026-02-21,m,4.728268309377139
6fh6GocG,4,noun,ameise,ameise,target,upper-right,TRUE,10973,Chrome,Mac OS X,2026-02-21,m,4.728268309377139
6fh6GocG,5,verb,jonglieren,jonglieren,target,upper-right,TRUE,11710,Chrome,Mac OS X,2026-02-21,m,4.728268309377139
6fh6GocG,6,noun,elch,elch,target,upper-left,TRUE,9153,Chrome,Mac OS X,2026-02-21,m,4.728268309377139
6fh6GocG,7,noun,chor,orchester,dist1,lower-right,FALSE,6889,Chrome,Mac OS X,2026-02-21,m,4.728268309377139
6fh6GocG,8,verb,torkeln,schnorcheln,dist2,upper-right,FALSE,11201,Chrome,Mac OS X,2026-02-21,m,4.728268309377139
6fh6GocG,9,verb,studieren,marschieren,dist2,upper-left,FALSE,6323,Chrome,Mac OS X,2026-02-21,m,4.728268309377139
6fh6GocG,10,verb,operieren,impfen,dist1,upper-right,FALSE,6085,Chrome,Mac OS X,2026-02-21,m,4.728268309377139
6fh6GocG,11,noun,ventilator,ventilator,target,lower-left,TRUE,5383,Chrome,Mac OS X,2026-02-21,m,4.728268309377139
6fh6GocG,12,verb,waehlen,waehlen,target,lower-right,TRUE,5670,Chrome,Mac OS X,2026-02-21,m,4.728268309377139
6fh6GocG,13,noun,rucola,drakula,dist2,upper-left,FALSE,6627,Chrome,Mac OS X,2026-02-21,m,4.728268309377139
6fh6GocG,14,verb,scheren,begruessen,dist3,lower-left,FALSE,6634,Chrome,Mac OS X,2026-02-21,m,4.728268309377139
6fh6GocG,15,noun,giraffe,giraffe,target,upper-left,TRUE,3050,Chrome,Mac OS X,2026-02-21,m,4.728268309377139
6fh6GocG,16,noun,palme,palme,target,lower-left,TRUE,4008,Chrome,Mac OS X,2026-02-21,m,4.728268309377139
6fh6GocG,17,verb,tadeln,tadeln,target,upper-right,TRUE,8328,Chrome,Mac OS X,2026-02-21,m,4.728268309377139
6fh6GocG,18,noun,ananas,ananas,target,lower-right,TRUE,3894,Chrome,Mac OS X,2026-02-21,m,4.728268309377139
6fh6GocG,19,verb,empfangen,verschicken,dist1,lower-left,FALSE,4990,Chrome,Mac OS X,2026-02-21,m,4.728268309377139
6fh6GocG,20,verb,verloben,vergeben,dist2,lower-left,FALSE,5039,Chrome,Mac OS X,2026-02-21,m,4.728268309377139
6fh6GocG,21,noun,ozean,ozean,target,upper-left,TRUE,4120,Chrome,Mac OS X,2026-02-21,m,4.728268309377139
6fh6GocG,22,verb,faulenzen,faulenzen,target,upper-left,TRUE,4629,Chrome,Mac OS X,2026-02-21,m,4.728268309377139
6fh6GocG,23,noun,gazelle,gazelle,target,lower-right,TRUE,3096,Chrome,Mac OS X,2026-02-21,m,4.728268309377139
6fh6GocG,24,verb,liefern,liefern,target,lower-left,TRUE,4112,Chrome,Mac OS X,2026-02-21,m,4.728268309377139
6fh6GocG,25,noun,pfifferling,schmetterling,dist2,lower-left,FALSE,4738,Chrome,Mac OS X,2026-02-21,m,4.728268309377139
6fh6GocG,26,verb,dekorieren,dekorieren,target,upper-right,TRUE,4319,Chrome,Mac OS X,2026-02-21,m,4.728268309377139
6fh6GocG,27,verb,bekennen,verstecken,dist1,lower-right,FALSE,4272,Chrome,Mac OS X,2026-02-21,m,4.728268309377139
6fh6GocG,28,noun,ruine,ruine,target,lower-right,TRUE,3399,Chrome,Mac OS X,2026-02-21,m,4.728268309377139
6fh6GocG,29,noun,labyrinth,labyrinth,target,lower-left,TRUE,3067,Chrome,Mac OS X,2026-02-21,m,4.728268309377139
6fh6GocG,30,noun,orchidee,zeh,dist2,upper-right,FALSE,4947,Chrome,Mac OS X,2026-02-21,m,4.728268309377139
6fh6GocG,31,verb,schwanken,drehen,dist1,lower-right,FALSE,4877,Chrome,Mac OS X,2026-02-21,m,4.728268309377139
6fh6GocG,32,noun,zucchini,zucchini,target,upper-right,TRUE,3408,Chrome,Mac OS X,2026-02-21,m,4.728268309377139
6fh6GocG,33,verb,tuermen,tuermen,target,upper-left,TRUE,5634,Chrome,Mac OS X,2026-02-21,m,4.728268309377139
6fh6GocG,34,verb,befreien,befreien,target,lower-right,TRUE,3017,Chrome,Mac OS X,2026-02-21,m,4.728268309377139
6fh6GocG,35,noun,kajak,kajak,target,upper-left,TRUE,4254,Chrome,Mac OS X,2026-02-21,m,4.728268309377139
6fh6GocG,36,verb,abseilen,abseilen,target,upper-left,TRUE,4275,Chrome,Mac OS X,2026-02-21,m,4.728268309377139
6fh6GocG,37,verb,tuscheln,verpetzen,dist1,lower-left,FALSE,6183,Chrome,Mac OS X,2026-02-21,m,4.728268309377139
6fh6GocG,38,noun,hummer,hummer,target,upper-right,TRUE,4454,Chrome,Mac OS X,2026-02-21,m,4.728268309377139
6fh6GocG,39,noun,nelke,nelke,target,upper-right,TRUE,3842,Chrome,Mac OS X,2026-02-21,m,4.728268309377139
6fh6GocG,40,verb,betrachten,bewachen,dist2,upper-right,FALSE,4474,Chrome,Mac OS X,2026-02-21,m,4.728268309377139
6fh6GocG,41,noun,flunder,flunder,target,lower-right,TRUE,4163,Chrome,Mac OS X,2026-02-21,m,4.728268309377139
6fh6GocG,42,noun,cello,cello,target,lower-left,TRUE,5696,Chrome,Mac OS X,2026-02-21,m,4.728268309377139
7cuY4TPg,1,noun,auge,auge,target,upper-left,TRUE,4959,Safari,Mac OS X,2026-02-21,m,4.991101984941821
7cuY4TPg,2,verb,schweben,schweben,target,lower-left,TRUE,4649,Safari,Mac OS X,2026-02-21,m,4.991101984941821
7cuY4TPg,3,noun,moehre,moehre,target,lower-right,TRUE,3424,Safari,Mac OS X,2026-02-21,m,4.991101984941821
7cuY4TPg,4,noun,ameise,ameise,target,upper-right,TRUE,4635,Safari,Mac OS X,2026-02-21,m,4.991101984941821
7cuY4TPg,5,verb,jonglieren,jonglieren,target,upper-right,TRUE,4194,Safari,Mac OS X,2026-02-21,m,4.991101984941821
7cuY4TPg,6,noun,elch,elch,target,upper-left,TRUE,4465,Safari,Mac OS X,2026-02-21,m,4.991101984941821
7cuY4TPg,7,noun,chor,chor,target,upper-right,TRUE,5662,Safari,Mac OS X,2026-02-21,m,4.991101984941821
7cuY4TPg,8,verb,torkeln,schnorcheln,dist2,upper-right,FALSE,10408,Safari,Mac OS X,2026-02-21,m,4.991101984941821
7cuY4TPg,9,verb,studieren,unterrichten,dist1,upper-right,FALSE,11647,Safari,Mac OS X,2026-02-21,m,4.991101984941821
7cuY4TPg,10,verb,operieren,operieren,target,lower-left,TRUE,4125,Safari,Mac OS X,2026-02-21,m,4.991101984941821
7cuY4TPg,11,noun,ventilator,ventilator,target,lower-left,TRUE,5007,Safari,Mac OS X,2026-02-21,m,4.991101984941821
7cuY4TPg,12,verb,waehlen,ueberlegen,dist1,upper-right,FALSE,10501,Safari,Mac OS X,2026-02-21,m,4.991101984941821
7cuY4TPg,13,noun,rucola,drakula,dist2,upper-left,FALSE,8656,Safari,Mac OS X,2026-02-21,m,4.991101984941821
7cuY4TPg,14,verb,scheren,scheren,target,upper-right,TRUE,6052,Safari,Mac OS X,2026-02-21,m,4.991101984941821
7cuY4TPg,15,noun,giraffe,giraffe,target,upper-left,TRUE,3613,Safari,Mac OS X,2026-02-21,m,4.991101984941821
7cuY4TPg,16,noun,palme,palme,target,lower-left,TRUE,4546,Safari,Mac OS X,2026-02-21,m,4.991101984941821
7cuY4TPg,17,verb,tadeln,tadeln,target,upper-right,TRUE,10402,Safari,Mac OS X,2026-02-21,m,4.991101984941821
7cuY4TPg,18,noun,ananas,ananas,target,lower-right,TRUE,3794,Safari,Mac OS X,2026-02-21,m,4.991101984941821
7cuY4TPg,19,verb,empfangen,empfangen,target,lower-right,TRUE,5180,Safari,Mac OS X,2026-02-21,m,4.991101984941821
7cuY4TPg,20,verb,verloben,heiraten,dist1,lower-right,FALSE,6712,Safari,Mac OS X,2026-02-21,m,4.991101984941821
7cuY4TPg,21,noun,ozean,ozean,target,upper-left,TRUE,5416,Safari,Mac OS X,2026-02-21,m,4.991101984941821
7cuY4TPg,22,verb,faulenzen,faulenzen,target,upper-left,TRUE,10883,Safari,Mac OS X,2026-02-21,m,4.991101984941821
7cuY4TPg,23,noun,gazelle,libelle,dist2,upper-left,FALSE,16033,Safari,Mac OS X,2026-02-21,m,4.991101984941821
7cuY4TPg,24,verb,liefern,liefern,target,lower-left,TRUE,4263,Safari,Mac OS X,2026-02-21,m,4.991101984941821
7cuY4TPg,25,noun,pfifferling,pfifferling,target,upper-left,TRUE,6562,Safari,Mac OS X,2026-02-21,m,4.991101984941821
7cuY4TPg,26,verb,dekorieren,dekorieren,target,upper-right,TRUE,5958,Safari,Mac OS X,2026-02-21,m,4.991101984941821
7cuY4TPg,27,verb,bekennen,verbrennen,dist2,upper-right,FALSE,11735,Safari,Mac OS X,2026-02-21,m,4.991101984941821
7cuY4TPg,28,noun,ruine,festung,dist1,upper-right,FALSE,11646,Safari,Mac OS X,2026-02-21,m,4.991101984941821
7cuY4TPg,29,noun,labyrinth,labyrinth,target,lower-left,TRUE,5452,Safari,Mac OS X,2026-02-21,m,4.991101984941821
7cuY4TPg,30,noun,orchidee,banner,dist3,lower-right,FALSE,16959,Safari,Mac OS X,2026-02-21,m,4.991101984941821
7cuY4TPg,31,verb,schwanken,schwanken,target,upper-right,TRUE,6142,Safari,Mac OS X,2026-02-21,m,4.991101984941821
7cuY4TPg,32,noun,zucchini,zucchini,target,upper-right,TRUE,5061,Safari,Mac OS X,2026-02-21,m,4.991101984941821
7cuY4TPg,33,verb,tuermen,tuermen,target,upper-left,TRUE,7844,Safari,Mac OS X,2026-02-21,m,4.991101984941821
7cuY4TPg,34,verb,befreien,befreien,target,lower-right,TRUE,5080,Safari,Mac OS X,2026-02-21,m,4.991101984941821
7cuY4TPg,35,noun,kajak,kajak,target,upper-left,TRUE,9223,Safari,Mac OS X,2026-02-21,m,4.991101984941821
7cuY4TPg,36,verb,abseilen,abseilen,target,upper-left,TRUE,4467,Safari,Mac OS X,2026-02-21,m,4.991101984941821
7cuY4TPg,37,verb,tuscheln,singen,dist3,upper-left,FALSE,10411,Safari,Mac OS X,2026-02-21,m,4.991101984941821
7cuY4TPg,38,noun,hummer,hummer,target,upper-right,TRUE,4257,Safari,Mac OS X,2026-02-21,m,4.991101984941821
7cuY4TPg,39,noun,nelke,nelke,target,upper-right,TRUE,12484,Safari,Mac OS X,2026-02-21,m,4.991101984941821
7cuY4TPg,40,verb,betrachten,bewachen,dist2,upper-right,FALSE,9826,Safari,Mac OS X,2026-02-21,m,4.991101984941821
7cuY4TPg,41,noun,flunder,flunder,target,lower-right,TRUE,11407,Safari,Mac OS X,2026-02-21,m,4.991101984941821
7cuY4TPg,42,noun,cello,cello,target,lower-left,TRUE,5119,Safari,Mac OS X,2026-02-21,m,4.991101984941821
7ECiR4G8,1,noun,auge,auge,target,upper-left,TRUE,3853,Chrome,Windows,2026-02-22,w,7.2908966461327855
7ECiR4G8,2,verb,schweben,schweben,target,lower-left,TRUE,4101,Chrome,Windows,2026-02-22,w,7.2908966461327855
7ECiR4G8,3,noun,moehre,moehre,target,lower-right,TRUE,3850,Chrome,Windows,2026-02-22,w,7.2908966461327855
7ECiR4G8,4,noun,ameise,ameise,target,upper-right,TRUE,3601,Chrome,Windows,2026-02-22,w,7.2908966461327855
7ECiR4G8,5,verb,jonglieren,jonglieren,target,upper-right,TRUE,3998,Chrome,Windows,2026-02-22,w,7.2908966461327855
7ECiR4G8,6,noun,elch,elch,target,upper-left,TRUE,3874,Chrome,Windows,2026-02-22,w,7.2908966461327855
7ECiR4G8,7,noun,chor,chor,target,upper-right,TRUE,30541,Chrome,Windows,2026-02-22,w,7.2908966461327855
7ECiR4G8,8,verb,torkeln,schnorcheln,dist2,upper-right,FALSE,43776,Chrome,Windows,2026-02-22,w,7.2908966461327855
7ECiR4G8,9,verb,studieren,studieren,target,lower-right,TRUE,6165,Chrome,Windows,2026-02-22,w,7.2908966461327855
7ECiR4G8,10,verb,operieren,operieren,target,lower-left,TRUE,2884,Chrome,Windows,2026-02-22,w,7.2908966461327855
7ECiR4G8,11,noun,ventilator,ventilator,target,lower-left,TRUE,3286,Chrome,Windows,2026-02-22,w,7.2908966461327855
7ECiR4G8,12,verb,waehlen,waehlen,target,lower-right,TRUE,13706,Chrome,Windows,2026-02-22,w,7.2908966461327855
7ECiR4G8,13,noun,rucola,rucola,target,lower-right,TRUE,8308,Chrome,Windows,2026-02-22,w,7.2908966461327855
7ECiR4G8,14,verb,scheren,scheren,target,upper-right,TRUE,5723,Chrome,Windows,2026-02-22,w,7.2908966461327855
7ECiR4G8,15,noun,giraffe,giraffe,target,upper-left,TRUE,3275,Chrome,Windows,2026-02-22,w,7.2908966461327855
7ECiR4G8,16,noun,palme,palme,target,lower-left,TRUE,2738,Chrome,Windows,2026-02-22,w,7.2908966461327855
7ECiR4G8,17,verb,tadeln,fluestern,dist3,upper-left,FALSE,9123,Chrome,Windows,2026-02-22,w,7.2908966461327855
7ECiR4G8,18,noun,ananas,ananas,target,lower-right,TRUE,2886,Chrome,Windows,2026-02-22,w,7.2908966461327855
7ECiR4G8,19,verb,empfangen,empfangen,target,lower-right,TRUE,10226,Chrome,Windows,2026-02-22,w,7.2908966461327855
7ECiR4G8,20,verb,verloben,verloben,target,upper-left,TRUE,14066,Chrome,Windows,2026-02-22,w,7.2908966461327855
7ECiR4G8,21,noun,ozean,ozean,target,upper-left,TRUE,6137,Chrome,Windows,2026-02-22,w,7.2908966461327855
7ECiR4G8,22,verb,faulenzen,faulenzen,target,upper-left,TRUE,3805,Chrome,Windows,2026-02-22,w,7.2908966461327855
7ECiR4G8,23,noun,gazelle,gazelle,target,lower-right,TRUE,3024,Chrome,Windows,2026-02-22,w,7.2908966461327855
7ECiR4G8,24,verb,liefern,liefern,target,lower-left,TRUE,4233,Chrome,Windows,2026-02-22,w,7.2908966461327855
7ECiR4G8,25,noun,pfifferling,pfifferling,target,upper-left,TRUE,7256,Chrome,Windows,2026-02-22,w,7.2908966461327855
7ECiR4G8,26,verb,dekorieren,dekorieren,target,upper-right,TRUE,6279,Chrome,Windows,2026-02-22,w,7.2908966461327855
7ECiR4G8,27,verb,bekennen,bekennen,target,upper-left,TRUE,23570,Chrome,Windows,2026-02-22,w,7.2908966461327855
7ECiR4G8,28,noun,ruine,ruine,target,lower-right,TRUE,3699,Chrome,Windows,2026-02-22,w,7.2908966461327855
7ECiR4G8,29,noun,labyrinth,labyrinth,target,lower-left,TRUE,5405,Chrome,Windows,2026-02-22,w,7.2908966461327855
7ECiR4G8,30,noun,orchidee,orchidee,target,lower-left,TRUE,5243,Chrome,Windows,2026-02-22,w,7.2908966461327855
7ECiR4G8,31,verb,schwanken,schwanken,target,upper-right,TRUE,9201,Chrome,Windows,2026-02-22,w,7.2908966461327855
7ECiR4G8,32,noun,zucchini,zucchini,target,upper-right,TRUE,3902,Chrome,Windows,2026-02-22,w,7.2908966461327855
7ECiR4G8,33,verb,tuermen,tuermen,target,upper-left,TRUE,9251,Chrome,Windows,2026-02-22,w,7.2908966461327855
7ECiR4G8,34,verb,befreien,befreien,target,lower-right,TRUE,2949,Chrome,Windows,2026-02-22,w,7.2908966461327855
7ECiR4G8,35,noun,kajak,kajak,target,upper-left,TRUE,7929,Chrome,Windows,2026-02-22,w,7.2908966461327855
7ECiR4G8,36,verb,abseilen,abseilen,target,upper-left,TRUE,4543,Chrome,Windows,2026-02-22,w,7.2908966461327855
7ECiR4G8,37,verb,tuscheln,tuscheln,target,lower-right,TRUE,3757,Chrome,Windows,2026-02-22,w,7.2908966461327855
7ECiR4G8,38,noun,hummer,hummer,target,upper-right,TRUE,4506,Chrome,Windows,2026-02-22,w,7.2908966461327855
7ECiR4G8,39,noun,nelke,veilchen,dist1,lower-right,FALSE,4294,Chrome,Windows,2026-02-22,w,7.2908966461327855
7ECiR4G8,40,verb,betrachten,zeigen,dist1,lower-right,FALSE,12848,Chrome,Windows,2026-02-22,w,7.2908966461327855
7ECiR4G8,41,noun,flunder,flunder,target,lower-right,TRUE,2922,Chrome,Windows,2026-02-22,w,7.2908966461327855
7ECiR4G8,42,noun,cello,harfe,dist1,lower-right,FALSE,2895,Chrome,Windows,2026-02-22,w,7.2908966461327855
7HAZQdgV,1,noun,auge,auge,target,upper-left,TRUE,8632,Chrome,Windows,2026-02-25,m,5.533196440793977
7HAZQdgV,2,verb,schweben,schweben,target,lower-left,TRUE,7843,Chrome,Windows,2026-02-25,m,5.533196440793977
7HAZQdgV,3,noun,moehre,moehre,target,lower-right,TRUE,5080,Chrome,Windows,2026-02-25,m,5.533196440793977
7HAZQdgV,4,noun,ameise,ameise,target,upper-right,TRUE,4445,Chrome,Windows,2026-02-25,m,5.533196440793977
7HAZQdgV,5,verb,jonglieren,jonglieren,target,upper-right,TRUE,7087,Chrome,Windows,2026-02-25,m,5.533196440793977
7HAZQdgV,6,noun,elch,elch,target,upper-left,TRUE,5065,Chrome,Windows,2026-02-25,m,5.533196440793977
7HAZQdgV,7,noun,chor,chor,target,upper-right,TRUE,5904,Chrome,Windows,2026-02-25,m,5.533196440793977
7HAZQdgV,8,verb,torkeln,torkeln,target,upper-left,TRUE,14447,Chrome,Windows,2026-02-25,m,5.533196440793977
7HAZQdgV,9,verb,studieren,unterrichten,dist1,upper-right,FALSE,21063,Chrome,Windows,2026-02-25,m,5.533196440793977
7HAZQdgV,10,verb,operieren,operieren,target,lower-left,TRUE,19109,Chrome,Windows,2026-02-25,m,5.533196440793977
7HAZQdgV,11,noun,ventilator,ventilator,target,lower-left,TRUE,4891,Chrome,Windows,2026-02-25,m,5.533196440793977
7HAZQdgV,12,verb,waehlen,waehlen,target,lower-right,TRUE,19374,Chrome,Windows,2026-02-25,m,5.533196440793977
7HAZQdgV,13,noun,rucola,rucola,target,lower-right,TRUE,17889,Chrome,Windows,2026-02-25,m,5.533196440793977
7HAZQdgV,14,verb,scheren,scheren,target,upper-right,TRUE,16631,Chrome,Windows,2026-02-25,m,5.533196440793977
7HAZQdgV,15,noun,giraffe,giraffe,target,upper-left,TRUE,4429,Chrome,Windows,2026-02-25,m,5.533196440793977
7HAZQdgV,16,noun,palme,palme,target,lower-left,TRUE,4874,Chrome,Windows,2026-02-25,m,5.533196440793977
7HAZQdgV,17,verb,tadeln,tadeln,target,upper-right,TRUE,25620,Chrome,Windows,2026-02-25,m,5.533196440793977
7HAZQdgV,18,noun,ananas,ananas,target,lower-right,TRUE,4728,Chrome,Windows,2026-02-25,m,5.533196440793977
7HAZQdgV,19,verb,empfangen,empfangen,target,lower-right,TRUE,8924,Chrome,Windows,2026-02-25,m,5.533196440793977
7HAZQdgV,20,verb,verloben,verloben,target,upper-left,TRUE,10886,Chrome,Windows,2026-02-25,m,5.533196440793977
7HAZQdgV,21,noun,ozean,ozean,target,upper-left,TRUE,4888,Chrome,Windows,2026-02-25,m,5.533196440793977
7HAZQdgV,22,verb,faulenzen,faulenzen,target,upper-left,TRUE,15095,Chrome,Windows,2026-02-25,m,5.533196440793977
7HAZQdgV,23,noun,gazelle,gazelle,target,lower-right,TRUE,4845,Chrome,Windows,2026-02-25,m,5.533196440793977
7HAZQdgV,24,verb,liefern,liefern,target,lower-left,TRUE,11258,Chrome,Windows,2026-02-25,m,5.533196440793977
7HAZQdgV,25,noun,pfifferling,pfifferling,target,upper-left,TRUE,7431,Chrome,Windows,2026-02-25,m,5.533196440793977
7HAZQdgV,26,verb,dekorieren,dekorieren,target,upper-right,TRUE,8489,Chrome,Windows,2026-02-25,m,5.533196440793977
7HAZQdgV,27,verb,bekennen,bekennen,target,upper-left,TRUE,29604,Chrome,Windows,2026-02-25,m,5.533196440793977
7HAZQdgV,28,noun,ruine,ruine,target,lower-right,TRUE,10168,Chrome,Windows,2026-02-25,m,5.533196440793977
7HAZQdgV,29,noun,labyrinth,labyrinth,target,lower-left,TRUE,6494,Chrome,Windows,2026-02-25,m,5.533196440793977
7HAZQdgV,30,noun,orchidee,orchidee,target,lower-left,TRUE,7603,Chrome,Windows,2026-02-25,m,5.533196440793977
7HAZQdgV,31,verb,schwanken,drehen,dist1,lower-right,FALSE,11479,Chrome,Windows,2026-02-25,m,5.533196440793977
7HAZQdgV,32,noun,zucchini,zucchini,target,upper-right,TRUE,5821,Chrome,Windows,2026-02-25,m,5.533196440793977
7HAZQdgV,33,verb,tuermen,tuermen,target,upper-left,TRUE,10995,Chrome,Windows,2026-02-25,m,5.533196440793977
7HAZQdgV,34,verb,befreien,befreien,target,lower-right,TRUE,7960,Chrome,Windows,2026-02-25,m,5.533196440793977
7HAZQdgV,35,noun,kajak,kajak,target,upper-left,TRUE,9889,Chrome,Windows,2026-02-25,m,5.533196440793977
7HAZQdgV,36,verb,abseilen,abseilen,target,upper-left,TRUE,7038,Chrome,Windows,2026-02-25,m,5.533196440793977
7HAZQdgV,37,verb,tuscheln,tuscheln,target,lower-right,TRUE,12102,Chrome,Windows,2026-02-25,m,5.533196440793977
7HAZQdgV,38,noun,hummer,hummer,target,upper-right,TRUE,7208,Chrome,Windows,2026-02-25,m,5.533196440793977
7HAZQdgV,39,noun,nelke,nelke,target,upper-right,TRUE,8929,Chrome,Windows,2026-02-25,m,5.533196440793977
7HAZQdgV,40,verb,betrachten,betrachten,target,lower-left,TRUE,26776,Chrome,Windows,2026-02-25,m,5.533196440793977
7HAZQdgV,41,noun,flunder,flunder,target,lower-right,TRUE,17242,Chrome,Windows,2026-02-25,m,5.533196440793977
7HAZQdgV,42,noun,cello,cello,target,lower-left,TRUE,10321,Chrome,Windows,2026-02-25,m,5.533196440793977
7M9Vu88e,1,noun,auge,auge,target,upper-left,TRUE,8520,Firefox,Windows,2026-02-20,w,4.85968514715948
7M9Vu88e,2,verb,schweben,schweben,target,lower-left,TRUE,11434,Firefox,Windows,2026-02-20,w,4.85968514715948
7M9Vu88e,3,noun,moehre,moehre,target,lower-right,TRUE,3694,Firefox,Windows,2026-02-20,w,4.85968514715948
7M9Vu88e,4,noun,ameise,ameise,target,upper-right,TRUE,4517,Firefox,Windows,2026-02-20,w,4.85968514715948
7M9Vu88e,5,verb,jonglieren,jonglieren,target,upper-right,TRUE,4212,Firefox,Windows,2026-02-20,w,4.85968514715948
7M9Vu88e,6,noun,elch,elch,target,upper-left,TRUE,4823,Firefox,Windows,2026-02-20,w,4.85968514715948
7M9Vu88e,7,noun,chor,chor,target,upper-right,TRUE,7951,Firefox,Windows,2026-02-20,w,4.85968514715948
7M9Vu88e,8,verb,torkeln,schnorcheln,dist2,upper-right,FALSE,7780,Firefox,Windows,2026-02-20,w,4.85968514715948
7M9Vu88e,9,verb,studieren,unterrichten,dist1,upper-right,FALSE,14385,Firefox,Windows,2026-02-20,w,4.85968514715948
7M9Vu88e,10,verb,operieren,operieren,target,lower-left,TRUE,14198,Firefox,Windows,2026-02-20,w,4.85968514715948
7M9Vu88e,11,noun,ventilator,ventilator,target,lower-left,TRUE,4532,Firefox,Windows,2026-02-20,w,4.85968514715948
7M9Vu88e,12,verb,waehlen,waehlen,target,lower-right,TRUE,12883,Firefox,Windows,2026-02-20,w,4.85968514715948
7M9Vu88e,13,noun,rucola,drakula,dist2,upper-left,FALSE,13853,Firefox,Windows,2026-02-20,w,4.85968514715948
7M9Vu88e,14,verb,scheren,scheren,target,upper-right,TRUE,7084,Firefox,Windows,2026-02-20,w,4.85968514715948
7M9Vu88e,15,noun,giraffe,giraffe,target,upper-left,TRUE,3239,Firefox,Windows,2026-02-20,w,4.85968514715948
7M9Vu88e,16,noun,palme,palme,target,lower-left,TRUE,5324,Firefox,Windows,2026-02-20,w,4.85968514715948
7M9Vu88e,17,verb,tadeln,radeln,dist2,lower-left,FALSE,14178,Firefox,Windows,2026-02-20,w,4.85968514715948
7M9Vu88e,18,noun,ananas,ananas,target,lower-right,TRUE,3996,Firefox,Windows,2026-02-20,w,4.85968514715948
7M9Vu88e,19,verb,empfangen,einfangen,dist2,upper-left,FALSE,11984,Firefox,Windows,2026-02-20,w,4.85968514715948
7M9Vu88e,20,verb,verloben,verloben,target,upper-left,TRUE,29516,Firefox,Windows,2026-02-20,w,4.85968514715948
7M9Vu88e,21,noun,ozean,pelikan,dist2,lower-right,FALSE,13303,Firefox,Windows,2026-02-20,w,4.85968514715948
7M9Vu88e,22,verb,faulenzen,faulenzen,target,upper-left,TRUE,7777,Firefox,Windows,2026-02-20,w,4.85968514715948
7M9Vu88e,23,noun,gazelle,libelle,dist2,upper-left,FALSE,7683,Firefox,Windows,2026-02-20,w,4.85968514715948
7M9Vu88e,24,verb,liefern,liefern,target,lower-left,TRUE,6488,Firefox,Windows,2026-02-20,w,4.85968514715948
7M9Vu88e,25,noun,pfifferling,pfifferling,target,upper-left,TRUE,13010,Firefox,Windows,2026-02-20,w,4.85968514715948
7M9Vu88e,26,verb,dekorieren,dekorieren,target,upper-right,TRUE,5072,Firefox,Windows,2026-02-20,w,4.85968514715948
7M9Vu88e,27,verb,bekennen,verbrennen,dist2,upper-right,FALSE,9740,Firefox,Windows,2026-02-20,w,4.85968514715948
7M9Vu88e,28,noun,ruine,ruine,target,lower-right,TRUE,12112,Firefox,Windows,2026-02-20,w,4.85968514715948
7M9Vu88e,29,noun,labyrinth,labyrinth,target,lower-left,TRUE,5651,Firefox,Windows,2026-02-20,w,4.85968514715948
7M9Vu88e,30,noun,orchidee,banner,dist3,lower-right,FALSE,13211,Firefox,Windows,2026-02-20,w,4.85968514715948
7M9Vu88e,31,verb,schwanken,schwanken,target,upper-right,TRUE,9293,Firefox,Windows,2026-02-20,w,4.85968514715948
7M9Vu88e,32,noun,zucchini,zucchini,target,upper-right,TRUE,4489,Firefox,Windows,2026-02-20,w,4.85968514715948
7M9Vu88e,33,verb,tuermen,tuermen,target,upper-left,TRUE,5455,Firefox,Windows,2026-02-20,w,4.85968514715948
7M9Vu88e,34,verb,befreien,befreien,target,lower-right,TRUE,7983,Firefox,Windows,2026-02-20,w,4.85968514715948
7M9Vu88e,35,noun,kajak,bumerang,dist3,lower-right,FALSE,7144,Firefox,Windows,2026-02-20,w,4.85968514715948
7M9Vu88e,36,verb,abseilen,abseilen,target,upper-left,TRUE,5101,Firefox,Windows,2026-02-20,w,4.85968514715948
7M9Vu88e,37,verb,tuscheln,singen,dist3,upper-left,FALSE,15496,Firefox,Windows,2026-02-20,w,4.85968514715948
7M9Vu88e,38,noun,hummer,hummer,target,upper-right,TRUE,6817,Firefox,Windows,2026-02-20,w,4.85968514715948
7M9Vu88e,39,noun,nelke,veilchen,dist1,lower-right,FALSE,17948,Firefox,Windows,2026-02-20,w,4.85968514715948
7M9Vu88e,40,verb,betrachten,betrachten,target,lower-left,TRUE,37280,Firefox,Windows,2026-02-20,w,4.85968514715948
7M9Vu88e,41,noun,flunder,flunder,target,lower-right,TRUE,15537,Firefox,Windows,2026-02-20,w,4.85968514715948
7M9Vu88e,42,noun,cello,cello,target,lower-left,TRUE,5732,Firefox,Windows,2026-02-20,w,4.85968514715948
7oMmhQEN,1,noun,auge,auge,target,upper-left,TRUE,9823,Safari,Mac OS X,2026-02-22,w,6.2149212867898695
7oMmhQEN,2,verb,schweben,schweben,target,lower-left,TRUE,4707,Safari,Mac OS X,2026-02-22,w,6.2149212867898695
7oMmhQEN,3,noun,moehre,moehre,target,lower-right,TRUE,2597,Safari,Mac OS X,2026-02-22,w,6.2149212867898695
7oMmhQEN,4,noun,ameise,ameise,target,upper-right,TRUE,2225,Safari,Mac OS X,2026-02-22,w,6.2149212867898695
7oMmhQEN,5,verb,jonglieren,jonglieren,target,upper-right,TRUE,9458,Safari,Mac OS X,2026-02-22,w,6.2149212867898695
7oMmhQEN,6,noun,elch,elch,target,upper-left,TRUE,3129,Safari,Mac OS X,2026-02-22,w,6.2149212867898695
7oMmhQEN,7,noun,chor,chor,target,upper-right,TRUE,6824,Safari,Mac OS X,2026-02-22,w,6.2149212867898695
7oMmhQEN,8,verb,torkeln,torkeln,target,upper-left,TRUE,6217,Safari,Mac OS X,2026-02-22,w,6.2149212867898695
7oMmhQEN,9,verb,studieren,unterrichten,dist1,upper-right,FALSE,4344,Safari,Mac OS X,2026-02-22,w,6.2149212867898695
7oMmhQEN,10,verb,operieren,operieren,target,lower-left,TRUE,3025,Safari,Mac OS X,2026-02-22,w,6.2149212867898695
7oMmhQEN,11,noun,ventilator,ventilator,target,lower-left,TRUE,3752,Safari,Mac OS X,2026-02-22,w,6.2149212867898695
7oMmhQEN,12,verb,waehlen,waehlen,target,lower-right,TRUE,5097,Safari,Mac OS X,2026-02-22,w,6.2149212867898695
7oMmhQEN,13,noun,rucola,drakula,dist2,upper-left,FALSE,2952,Safari,Mac OS X,2026-02-22,w,6.2149212867898695
7oMmhQEN,14,verb,scheren,streicheln,dist1,upper-left,FALSE,7445,Safari,Mac OS X,2026-02-22,w,6.2149212867898695
7oMmhQEN,15,noun,giraffe,giraffe,target,upper-left,TRUE,4847,Safari,Mac OS X,2026-02-22,w,6.2149212867898695
7oMmhQEN,16,noun,palme,palme,target,lower-left,TRUE,23745,Safari,Mac OS X,2026-02-22,w,6.2149212867898695
7oMmhQEN,17,verb,tadeln,tadeln,target,upper-right,TRUE,14761,Safari,Mac OS X,2026-02-22,w,6.2149212867898695
7oMmhQEN,18,noun,ananas,ananas,target,lower-right,TRUE,3483,Safari,Mac OS X,2026-02-22,w,6.2149212867898695
7oMmhQEN,19,verb,empfangen,empfangen,target,lower-right,TRUE,3674,Safari,Mac OS X,2026-02-22,w,6.2149212867898695
7oMmhQEN,20,verb,verloben,heiraten,dist1,lower-right,FALSE,3682,Safari,Mac OS X,2026-02-22,w,6.2149212867898695
7oMmhQEN,21,noun,ozean,ozean,target,upper-left,TRUE,3525,Safari,Mac OS X,2026-02-22,w,6.2149212867898695
7oMmhQEN,22,verb,faulenzen,faulenzen,target,upper-left,TRUE,3774,Safari,Mac OS X,2026-02-22,w,6.2149212867898695
7oMmhQEN,23,noun,gazelle,gazelle,target,lower-right,TRUE,3618,Safari,Mac OS X,2026-02-22,w,6.2149212867898695
7oMmhQEN,24,verb,liefern,liefern,target,lower-left,TRUE,5842,Safari,Mac OS X,2026-02-22,w,6.2149212867898695
7oMmhQEN,25,noun,pfifferling,pfifferling,target,upper-left,TRUE,7217,Safari,Mac OS X,2026-02-22,w,6.2149212867898695
7oMmhQEN,26,verb,dekorieren,dekorieren,target,upper-right,TRUE,4663,Safari,Mac OS X,2026-02-22,w,6.2149212867898695
7oMmhQEN,27,verb,bekennen,bekennen,target,upper-left,TRUE,18670,Safari,Mac OS X,2026-02-22,w,6.2149212867898695
7oMmhQEN,28,noun,ruine,ruine,target,lower-right,TRUE,4507,Safari,Mac OS X,2026-02-22,w,6.2149212867898695
7oMmhQEN,29,noun,labyrinth,labyrinth,target,lower-left,TRUE,2768,Safari,Mac OS X,2026-02-22,w,6.2149212867898695
7oMmhQEN,30,noun,orchidee,orchidee,target,lower-left,TRUE,4824,Safari,Mac OS X,2026-02-22,w,6.2149212867898695
7oMmhQEN,31,verb,schwanken,drehen,dist1,lower-right,FALSE,24760,Safari,Mac OS X,2026-02-22,w,6.2149212867898695
7oMmhQEN,32,noun,zucchini,zucchini,target,upper-right,TRUE,5308,Safari,Mac OS X,2026-02-22,w,6.2149212867898695
7oMmhQEN,33,verb,tuermen,tuermen,target,upper-left,TRUE,5502,Safari,Mac OS X,2026-02-22,w,6.2149212867898695
7oMmhQEN,34,verb,befreien,befreien,target,lower-right,TRUE,4033,Safari,Mac OS X,2026-02-22,w,6.2149212867898695
7oMmhQEN,35,noun,kajak,kajak,target,upper-left,TRUE,3100,Safari,Mac OS X,2026-02-22,w,6.2149212867898695
7oMmhQEN,36,verb,abseilen,abseilen,target,upper-left,TRUE,2804,Safari,Mac OS X,2026-02-22,w,6.2149212867898695
